idx,t,px,py,pz,vx,vy,vz,ax,ay,az,yaw,mode,ledr,ledg,ledb
0,0.0,3.9610067262499775e-47,4.7015009638146124e-113,0.0025000000000000226,2.301107669012387e-31,3.5832901852040216e-97,-0.054360101334379844,-1.5340717793415907e-30,-2.3888601234693465e-96,-0.22959932443746792,0.0,70.0,255.0,255.0,255.0
1,0.05,1.1505538345061974e-32,1.7916450926020156e-98,-0.0002180050667189696,1.5340717793415915e-31,2.3888601234693483e-97,-0.06584006755625324,-2.1093486965946875e-30,-3.28468266977035e-96,-0.34369907110151854,0.0,70.0,255.0,255.0,255.0
2,0.1,1.5340717793415953e-32,2.3888601234693532e-98,-0.004084006755625301,1.9175897241769931e-32,2.9860751543367126e-98,-0.0887300084445317,-2.301107669012387e-30,-3.5832901852040206e-96,-0.4563989866562021,0.0,70.0,255.0,255.0,255.0
3,0.15000000000000002,1.3423128069238967e-32,2.0902526080356868e-98,-0.00909100591117214,-7.670358896707957e-32,-1.1944300617346726e-97,-0.11147996622187345,-1.5340717793416021e-30,-2.3888601234693673e-96,-0.453599324437509,0.0,70.0,255.0,255.0,255.0
4,0.2,7.670358896707996e-33,1.1944300617346807e-98,-0.015232003377812647,-1.3423128069239028e-31,-2.0902526080356964e-97,-0.1340899408882826,-7.509442276497384e-31,-1.169372088411583e-96,-0.4508013476267808,0.0,70.0,255.0,255.0,255.0
5,0.25,-6.260684056919959e-47,-9.715241353244305e-113,-0.0225000000000004,-1.5179801173205342e-31,-2.3638021501462557e-97,-0.15656010098455153,1.2471038066327854e-31,1.9419929325409718e-97,-0.44801306191196183,0.0,70.0,255.0,255.0,255.0
6,0.30000000000000004,-7.509442276497345e-33,-1.169372088411575e-98,-0.030888013476267802,-1.2176024262606243e-31,-1.8960533147815993e-97,-0.1788912470794788,1.1174765292406953e-30,1.7401370363267793e-96,-0.44523704222209054,0.0,70.0,255.0,255.0,255.0
7,0.35000000000000003,-1.2176024262606306e-32,-1.8960533147816092e-98,-0.04038912470794828,-4.0050358807983887e-32,-6.236651138194765e-98,-0.20108380520676059,2.01771562119696e-30,3.1419914327915686e-96,-0.4424513314362688,0.0,70.0,255.0,255.0,255.0
8,0.4,-1.1514478157295733e-32,-1.7930372022310516e-98,-0.05099639399694386,8.001131949363356e-32,1.2459381180099694e-97,-0.22313638022310567,2.4906316883715892e-30,3.87841742656501e-96,-0.4396208637046714,0.0,70.0,255.0,255.0,255.0
9,0.45,-4.174892313242949e-33,-6.5011519677163965e-99,-0.06270276273025885,2.0901281002917504e-31,3.2547523127455344e-97,-0.24504589157722773,2.203663715662562e-30,3.4315502356362687e-96,-0.43672423383545433,0.0,70.0,255.0,255.0,255.0
10,0.5,9.386802845621773e-33,1.4617151105144833e-98,-0.07550098315466663,3.0037769105988977e-31,4.6774883536462383e-97,-0.2668088036066511,6.901535044589898e-31,1.0747086336353182e-96,-0.43377634122043873,0.0,70.0,255.0,255.0,255.0
11,0.55,2.586287679274603e-32,4.027373156874599e-98,-0.08938364309092396,2.7802816047507402e-31,4.3294609463808527e-97,-0.2884235256992716,-2.2018757532158514e-30,-3.4287660163782614e-96,-0.4307817809379305,0.0,70.0,255.0,255.0,255.0
12,0.6000000000000001,3.718961889312918e-32,5.791176056895336e-98,-0.1043433357245938,8.019011573830461e-32,1.2487223372679768e-97,-0.30988698170044415,-5.580230796416207e-30,-8.689548304601197e-96,-0.4276590810831482,0.0,70.0,255.0,255.0,255.0
13,0.65,3.3881888366576493e-32,5.276095494142576e-98,-0.12037234126096838,-2.799949191665467e-31,-4.360087358220344e-97,-0.3311894338075864,-7.9448111322894e-30,-1.2371678273468477e-95,-0.4242860118157238,0.0,70.0,255.0,255.0,255.0
14,0.7000000000000001,9.190126976474507e-33,1.4310886986749916e-98,-0.13746227910535244,-7.142909974906353e-31,-1.11229559362005e-96,-0.35231558288201653,-7.713269995430662e-30,-1.201112187954147e-95,-0.4205709622648479,0.0,70.0,255.0,255.0,255.0
15,0.75,-3.7547211382487043e-32,-5.8468604420579246e-98,-0.15560389954917003,-1.051321918709613e-30,-1.6371209237761815e-96,-0.3732465300340712,-2.760614017835984e-30,-4.298834534541313e-96,-0.4164427936264037,0.0,70.0,255.0,255.0,255.0
16,0.8,-9.59420648944868e-32,-1.4940120539086823e-97,-0.17478693210875956,-9.903523992742336e-31,-1.5421790470741813e-96,-0.3939598622446569,7.70611814564378e-30,1.1999985002509376e-95,-0.41188852176516355,0.0,70.0,255.0,255.0,255.0
17,0.8500000000000001,-1.3658245130991042e-31,-2.1268650912799738e-97,-0.19499988577363572,-2.807101041452347e-31,-4.371224235252438e-97,-0.41443538221058757,2.030320756446787e-29,3.161620178561323e-95,-0.40703579411459634,0.0,70.0,255.0,255.0,255.0
18,0.9,-1.2401307530901027e-31,-1.931134477433926e-97,-0.21623047032981832,1.0399683571725533e-30,1.619441131487142e-96,-0.43466344165611653,2.928861284078601e-29,4.560829566730891e-95,-0.40211583495317615,0.0,70.0,255.0,255.0,255.0
19,0.9500000000000001,-3.2585615592655086e-32,-5.0742395979283183e-98,-0.23846622993924738,2.6481511799333665e-30,4.123707143205647e-96,-0.4546469657059052,2.864941626606009e-29,4.461293728252958e-95,-0.3973827795760193,0.0,70.0,255.0,255.0,255.0
20,1.0,1.408020426843264e-31,2.192572665771721e-97,-0.26169516690040884,3.904909983778562e-30,6.0807348597401e-96,-0.47440171961371846,1.0352302566884945e-29,1.6120629504529923e-95,-0.39308856819005034,0.0,70.0,255.0,255.0,255.0
21,1.05,3.5790538278520113e-31,5.573310899947268e-97,-0.2859064019006192,3.683381436621861e-30,5.7357700936586396e-96,-0.4939558225249102,-2.8622596829359255e-29,-4.4571173993659225e-95,-0.3893575585748432,0.0,70.0,255.0,255.0,255.0
22,1.1,5.0914018634651255e-31,7.928342759430362e-97,-0.31109074915289986,1.0426503008426366e-30,1.6236174603741774e-96,-0.5133374754712028,-7.563259946145531e-29,-1.1777525883785172e-94,-0.38606963057035704,0.0,70.0,255.0,255.0,255.0
23,1.1500000000000001,4.621704128694648e-31,7.196928360321445e-97,-0.3372401494477395,-3.8798785095236696e-30,-6.041755790126533e-96,-0.5325627855819459,-1.0920964023085471e-28,-1.7006150439576714e-94,-0.3829787602596946,0.0,70.0,255.0,255.0,255.0
24,1.2000000000000002,1.2115233539414558e-31,1.8865869693038286e-97,-0.36434702771109445,-9.878313722242836e-30,-1.538253297920254e-95,-0.5516353514971722,-1.0688439506880963e-28,-1.6644062725057683e-94,-0.3798313460045222,0.0,70.0,255.0,255.0,255.0
25,1.25,-5.256609593548187e-31,-8.185604618881093e-97,-0.3924036845974567,-1.4568318016404634e-29,-2.2685818515184217e-95,-0.5705459201823981,-3.86485962497037e-29,-6.018368348357829e-95,-0.3763749615854517,0.0,70.0,255.0,255.0,255.0
26,1.3,-1.3356794662463177e-30,-2.079923154588039e-96,-0.42140161972933426,-1.3743173347213206e-29,-2.140090132756037e-95,-0.5892728476557174,1.067842691717933e-28,1.6628471097212763e-94,-0.3724751833293849,0.0,70.0,255.0,255.0,255.0
27,1.35,-1.8999782940761396e-30,-2.9586505946441465e-96,-0.45133096936302847,-3.889891099225304e-30,-6.057347417971452e-96,-0.6077934385153366,2.8222719028135316e-28,4.394848335657936e-94,-0.36821202393030883,0.0,70.0,255.0,255.0,255.0
28,1.4000000000000001,-1.724668576168848e-30,-2.6856578963851842e-96,-0.4821809635808679,1.4479545680922113e-29,2.254758202901899e-95,-0.6260940500487483,4.075499480826325e-28,6.346377219157594e-94,-0.36376194452089616,0.0,70.0,255.0,255.0,255.0
29,1.4500000000000002,-4.5202372598392815e-31,-7.038923917422476e-97,-0.5139403743679033,3.686510370903795e-29,5.7406424773604486e-95,-0.6441696329674262,3.988881640091785e-28,6.211495717197777e-94,-0.3592989226529675,0.0,70.0,255.0,255.0,255.0
30,1.5,1.9618417947349474e-30,3.054984580975265e-96,-0.5465979268776106,5.436836208183997e-29,8.466253920099676e-95,-0.662023942314045,1.442420824319304e-28,2.2461410442978353e-94,-0.3549955481720657,0.0,70.0,255.0,255.0,255.0
31,1.55,4.9848124822000696e-30,7.76236152835743e-96,-0.5801427685993078,5.128931195223099e-29,7.986783521658284e-95,-0.6796691877846328,-3.985144798578139e-28,-6.205676698948511e-94,-0.35094776871366085,0.0,70.0,255.0,255.0,255.0
32,1.6,7.090772989958046e-30,1.104176810263355e-95,-0.6145648456560738,1.451691409605857e-29,2.2605772211511646e-95,-0.6971187191854111,-1.0532761616639582e-27,-1.6401640754253225e-93,-0.34711863734478987,0.0,70.0,255.0,255.0,255.0
33,1.6500000000000001,6.436503891805927e-30,1.0022938749508594e-95,-0.6498546405178489,-5.403830421416482e-29,-8.414857232594941e-95,-0.7143810515191118,-1.5209901520996755e-27,-2.368489383267271e-93,-0.34341793718125624,0.0,70.0,255.0,255.0,255.0
34,1.7000000000000002,1.686942568541564e-30,2.62691087003861e-96,-0.686002950807985,-1.3758210111390899e-28,-2.1424316611521548e-94,-0.7314605129035368,-1.4886682609679063e-27,-2.3181576596285375e-93,-0.33975916384981764,0.0,70.0,255.0,255.0,255.0
35,1.75,-7.321706219584972e-30,-1.1401377862012953e-95,-0.7230006918082026,-2.0290513031095544e-28,-3.159643382888032e-94,-0.7483569679040936,-5.383197334780162e-28,-8.382727342355543e-94,-0.3360508643742488,0.0,70.0,255.0,255.0,255.0
36,1.8,-1.8603570462553984e-29,-2.8969522958841713e-95,-0.7608386475983944,-1.914140744617106e-28,-2.980704395387709e-94,-0.7650655993409616,1.4872736502594696e-27,2.3159859686072876e-93,-0.3322409679231808,0.0,70.0,255.0,255.0,255.0
37,1.85,-2.6463113665756034e-29,-4.1208421815890046e-95,-0.7995072517422988,-5.417776528500847e-29,-8.436574142807442e-95,-0.7815810646964116,3.930877456374481e-27,6.1211714681355e-93,-0.32835435909153166,0.0,70.0,255.0,255.0,255.0
38,1.9000000000000001,-2.402134699105483e-29,-3.7406097101649156e-95,-0.8389967540680355,2.0167367117573746e-28,3.1404670727477913e-94,-0.7979010352501148,5.676410660316066e-27,8.83931981115332e-93,-0.3244445351923697,0.0,70.0,255.0,255.0,255.0
39,1.9500000000000002,-6.2957465481822874e-30,-9.80375108841213e-96,-0.8792973552673102,5.1346330074659815e-28,7.995662396872576e-94,-0.8140255182156486,5.555784879862444e-27,8.651481066794365e-93,-0.3205582214814706,0.0,70.0,255.0,255.0,255.0
40,2.0,2.732498308360499e-29,4.2550526867076604e-95,-0.9203993058896004,7.5725215916198185e-28,1.1791948139542157e-93,-0.8299568573982619,2.009036851480131e-27,3.128476832512436e-93,-0.31674896635885963,0.0,70.0,255.0,255.0,255.0
41,2.0500000000000003,6.94294693680159e-29,1.0811573030700946e-94,-0.9622930410071364,7.143669858946113e-28,1.1124139229385012e-93,-0.8457004148515346,-5.550580121180059e-27,-8.64337620453429e-93,-0.3130416463070107,0.0,70.0,255.0,255.0,255.0
42,2.1,9.876168167306613e-29,1.5379191916092673e-94,-1.0049693473747539,2.021941470439759e-28,3.148571935007867e-94,-0.8612610220289629,-1.467023366383396e-26,-2.2844521797116693e-92,-0.3093839262891751,0.0,70.0,255.0,255.0,255.0
43,2.15,8.964888407241349e-29,1.3960144965708812e-94,-1.0484191432100327,-7.526563804887848e-28,-1.1720382567731682e-93,-0.8766388074804521,-2.1184652489164608e-26,-3.298878986134602e-92,-0.3056839220492602,0.0,70.0,255.0,255.0,255.0
44,2.2,2.3496043624187637e-29,3.6588093483609915e-95,-1.092633228122799,-1.916271101872485e-27,-2.984021792633816e-93,-0.891829414233889,-2.0734471258481886e-26,-3.2287766607548925e-92,-0.3018546635108921,0.0,70.0,255.0,255.0,255.0
45,2.25,-1.0197822611483503e-28,-1.5880072960629348e-94,-1.1376020846334216,-2.8261035063369733e-27,-4.400814917528061e-93,-0.9068242738315413,-7.497827672442498e-27,-1.1675634595814174e-92,-0.297805298162257,0.0,70.0,255.0,255.0,255.0
46,2.3000000000000003,-2.591143070095097e-28,-4.034933982691962e-94,-1.1833156555059532,-2.666053869116735e-27,-4.151585252215233e-93,-0.9216099440501146,2.071504683446079e-26,3.2257518849529906e-92,-0.29349864731502695,0.0,70.0,255.0,255.0,255.0
47,2.35,-3.6858361302650856e-28,-5.739592548278169e-94,-1.229763079038433,-7.5459882289089425e-28,-1.1750630325750699e-93,-0.936174138563044,5.475005719896138e-26,8.525691572033124e-92,-0.28903170731369165,0.0,70.0,255.0,255.0,255.0
48,2.4000000000000004,-3.345741892985991e-28,-5.209997015267032e-94,-1.2769330693622576,2.808951850779403e-27,4.374106319817891e-93,-0.9505131147814838,7.906219929634232e-26,1.2311583963423075e-91,-0.28457884420971524,0.0,70.0,255.0,255.0,255.0
49,2.45,-8.768842794856825e-29,-1.3654862284602772e-94,-1.3248143905165815,7.151621106743339e-27,1.1136520930848005e-92,-0.9646320229840155,7.738210015406507e-26,1.204995853634014e-91,-0.2803158983675669,0.0,70.0,255.0,255.0,255.0
50,2.5,3.805879213757348e-28,5.926523915580974e-94,-1.3733962716606591,1.054716186618591e-26,1.642406485615803e-92,-0.9785447046182405,2.798227383828994e-26,4.35740615507443e-92,-0.27642182234397517,0.0,70.0,255.0,255.0,255.0
51,2.5500000000000003,9.670277586700227e-28,1.5058578627697755e-93,-1.4226688609784055,9.949848490572332e-27,1.5493927085922435e-92,-0.992274205218413,-7.73096072166631e-26,-1.2038669919358534e-91,-0.27297756396673645,0.0,70.0,255.0,255.0,255.0
52,2.6,1.375572770432968e-27,2.142045100150341e-93,-1.4726236921825004,2.8162011445196002e-27,4.385394936799496e-93,-1.0058424610149141,-2.0432999513201158e-25,-3.181831410842083e-91,-0.26984476893172626,0.0,70.0,255.0,255.0,255.0
53,2.6500000000000004,1.2486478731219828e-27,1.944397356449725e-93,-1.523253107079897,-1.0483151022628826e-26,-1.6324387022498398e-92,-1.0192586821115857,-2.9506414469620476e-25,-4.5947456867557704e-91,-0.26676433747558903,0.0,70.0,255.0,255.0,255.0
54,2.7,3.272576681700853e-28,5.096063979005011e-94,-1.574549560393659,-2.6690213325100877e-26,-4.156206193075821e-92,-1.032518894762473,-2.887939293577784e-25,-4.4971057484605664e-91,-0.26347568241282815,0.0,70.0,255.0,255.0,255.0
55,2.75,-1.420373459388105e-27,-2.211808836626096e-93,-1.6265049965561442,-3.936254395840666e-26,-6.1295444507104066e-92,-1.0456062503528685,-1.0443126768071714e-25,-1.62620611607163e-91,-0.25972344975782047,0.0,70.0,255.0,255.0,255.0
56,2.8000000000000003,-3.608996727670581e-27,-5.619938052809906e-93,-1.6791101854289459,-3.713334009317259e-26,-5.782412309147451e-92,-1.058491239738255,2.8852338203219138e-25,4.492892779248115e-91,-0.25538401057088045,0.0,70.0,255.0,255.0,255.0
57,2.85,-5.133707468705364e-27,-7.994221145773548e-93,-1.7323541205299697,-1.0510205755187521e-26,-1.6366516714622917e-92,-1.0711446514099565,7.62569923329085e-25,1.187475648616502e-90,-0.2505963964467339,0.0,70.0,255.0,255.0,255.0
58,2.9000000000000004,-4.6600173031893335e-27,-7.256589724272198e-93,-1.7862246505699415,3.912365223973592e-26,6.092344177017571e-92,-1.0835508793829285,1.1011943794884771e-24,1.7147824350680773e-90,-0.24563746556152122,0.0,70.0,255.0,255.0,255.0
59,2.95,-1.2213422447317726e-27,-1.9018769687559765e-93,-1.8407092084682626,9.96092321936602e-26,1.5511172679218483e-91,-1.0957083979661086,1.0777936172770479e-24,1.6783427140208256e-90,-0.24078743258701962,0.0,70.0,255.0,255.0,255.0
60,3.0,5.3009059161766855e-27,8.254582954946287e-93,-1.8957954903665524,1.4690301396744073e-25,2.2875771317225828e-91,-1.1076296226416305,3.8974279688457837e-25,6.069083848779075e-91,-0.23631235065277867,0.0,70.0,255.0,255.0,255.0
61,3.0500000000000003,1.3468959152012303e-26,2.097389434846985e-92,-1.9514721707324256,1.3858351188211804e-25,2.1580256527997558e-91,-1.1193396330313865,-1.0767839209121026e-24,-1.6767704125056617e-90,-0.23235296717643017,0.0,70.0,255.0,255.0,255.0
62,3.1,1.915925710438849e-26,2.9834839482943845e-92,-2.007729453669691,3.922462187623045e-26,6.10806719216921e-92,-1.1308649193592735,-2.8459496981843285e-24,-4.4317194533818e-90,-0.22884153339317592,0.0,70.0,255.0,255.0,255.0
63,3.1500000000000004,1.7391421339635348e-26,2.708196154063906e-92,-2.064558662668353,-1.4601145793631481e-25,-2.2736938005820438e-91,-1.142223786370704,-4.109713373257702e-24,-6.399655171596733e-90,-0.225613912166156,0.0,70.0,255.0,255.0,255.0
64,3.2,4.55811131075701e-27,7.097901477123405e-93,-2.1219518323067614,-3.7174671544953974e-25,-5.788848452379811e-91,-1.153426310575889,-4.022380539750414e-24,-6.263660281237245e-90,-0.22250130052583472,0.0,70.0,255.0,255.0,255.0
65,3.25,-1.978325020531863e-26,-3.0806522983159056e-92,-2.179901293725942,-5.482495119113563e-25,-8.537354081819289e-91,-1.1644739164232876,-1.4545399198575985e-24,-2.265012927904468e-90,-0.21934714763127694,0.0,70.0,255.0,255.0,255.0
66,3.3000000000000003,-5.026683988037863e-26,-7.827563934106949e-92,-2.23839922394909,-5.172007074352996e-25,-8.05386138028428e-91,-1.1753610253390168,4.018612301616221e-24,6.2577923720978345e-90,-0.21605185965101192,0.0,70.0,255.0,255.0,255.0
67,3.35,-7.150332094884859e-26,-1.1134513678600186e-91,-2.2974373962598436,-1.4638828174973413e-25,-2.2795617097214552e-91,-1.1860791023883888,1.062122886940823e-23,1.6539402164910702e-89,-0.21256203874524537,0.0,70.0,255.0,255.0,255.0
68,3.4000000000000004,-6.490566805535204e-26,-1.0107125643828405e-91,-2.357007134187929,5.449221795055234e-25,8.485540784626422e-91,-1.1966172292135413,1.533765911354233e-23,2.3883838251318846e-89,-0.20882063868765677,0.0,70.0,255.0,255.0,255.0
69,3.45,-1.701110299829625e-26,-2.6489728939737626e-92,-2.4170991191811977,1.387377629604499e-24,2.1604276541597393e-90,-1.2069611662571544,1.501172854172461e-23,2.337629841092815e-89,-0.20476839095060484,0.0,70.0,255.0,255.0,255.0
70,3.5,7.383209490509786e-26,1.149715089776899e-91,-2.4777032508136445,2.0460950336779845e-24,3.186183919555457e-90,-1.2170940683086018,5.428416882545806e-24,8.453143326739966e-90,-0.20034306814640246,0.0,70.0,255.0,255.0,255.0
71,3.5500000000000003,1.8759840036950221e-25,2.921286630158081e-91,-2.538808526012058,1.9302193178590796e-24,3.005741986833736e-90,-1.2269954730717947,-1.4997665285552782e-23,-2.3354399075885657e-89,-0.19553805575780459,0.0,70.0,255.0,255.0,255.0
72,3.6,2.6685402669100582e-25,4.155457076610635e-91,-2.600402798120824,5.463285051227063e-25,8.507440119668914e-91,-1.2366478738843822,-3.9638965779448565e-23,-6.172588920626099e-89,-0.19051292234828487,0.0,70.0,255.0,255.0,255.0
73,3.6500000000000004,2.4223125088177285e-25,3.7720306421249724e-91,-2.662473313400496,-2.0336772600857772e-24,-3.1668469337923634e-90,-1.2460467653066232,-5.724092308091161e-23,-8.913569783367872e-89,-0.18554343984344968,0.0,70.0,255.0,255.0,255.0
74,3.7,6.348630068242807e-26,9.886101428182716e-92,-2.7250074746514863,-5.177763802968455e-24,-8.06282577140098e-90,-1.2552022178687272,-5.602453362714788e-23,-8.724153336247515e-89,-0.18091688392343208,0.0,70.0,255.0,255.0,255.0
75,3.75,-2.755451294150727e-25,-4.2907951292760083e-91,-2.787993535187369,-7.636130622800566e-24,-1.189100027003988e-89,-1.2641384536989664,-2.0259127610325817e-23,-3.1547560379055655e-89,-0.17691657045881826,0.0,70.0,255.0,255.0,255.0
76,3.8000000000000003,-7.001267615976287e-25,-1.090239012722161e-90,-2.851421320021383,-7.203676564001037e-24,-1.1217581809306545e-89,-1.272893874914609,5.59720488405944e-23,8.715980393144414e-89,-0.17367022967200718,0.0,70.0,255.0,255.0,255.0
77,3.85,-9.959127858151765e-25,-1.5508376938582554e-90,-2.9152829226788297,-2.0389257387411253e-24,-3.1750198768954667e-90,-1.281505476666167,1.479346342483863e-22,2.303641546601336e-88,-0.17097732081281514,0.0,70.0,255.0,255.0,255.0
78,3.9000000000000004,-9.040193354717412e-25,-1.4077410004117076e-90,-2.9795718676879996,7.589786860837593e-24,1.1818833656706817e-89,-1.2899916069958905,2.136260332101046e-22,3.326589530833965e-88,-0.16845287466589198,0.0,70.0,255.0,255.0,255.0
79,3.95,-2.369340997314171e-25,-3.6895432818757363e-91,-3.0442820833784188,1.9323677582269332e-23,3.0090875431444183e-89,-1.2983507641327563,2.090864059668669e-22,3.2558983503897244e-88,-0.16569852556993503,0.0,70.0,255.0,255.0,255.0
80,4.0,1.0283484227551921e-24,1.601346542732711e-90,-3.1094069441012753,2.8498427457524284e-23,4.437781716060407e-89,-1.306561459552884,7.560809355875737e-23,1.1773709818948264e-88,-0.16231866866673883,0.0,70.0,255.0,255.0,255.0
81,4.05,2.612908646021012e-24,4.068827387872834e-90,-3.174938229333707,2.688448693814507e-23,4.186458525039245e-89,-1.3145826309994302,-2.0889053007682495e-22,-3.25284816649891e-88,-0.15811445212765562,0.0,70.0,255.0,255.0,255.0
82,4.1000000000000005,3.716797116569699e-24,5.7878050677719555e-90,-3.2408652072012183,7.609374449841788e-24,1.184933549561497e-89,-1.3223729047656496,-5.520995712140966e-22,-8.597307294342732e-88,-0.15326861025082295,0.0,70.0,255.0,255.0,255.0
83,4.15,3.373846091005191e-24,5.253760937434331e-90,-3.307175519810272,-2.832547018326458e-23,-4.410848769303488e-89,-1.3299094920245125,-7.972632097595063e-22,-1.2415001144999067e-87,-0.14815424564242896,0.0,70.0,255.0,255.0,255.0
84,4.2,8.84250098243241e-25,1.3769562984684675e-90,-3.3738561564036695,-7.211694652610884e-23,-1.123006759543757e-88,-1.3371883293298925,-7.8032109024032e-22,-1.2151178067934151e-87,-0.14314887393678255,0.0,70.0,255.0,255.0,255.0
85,4.25,-3.837848561605694e-24,-5.976306658003241e-90,-3.4408943527432614,-1.0635757920729659e-22,-1.656202683723764e-88,-1.3442243794181907,-2.8217324662470437e-22,-4.394008323788755e-88,-0.13862870825414042,0.0,70.0,255.0,255.0,255.0
86,4.3,-9.751507822486418e-24,-1.5185070538769173e-89,-3.5082785943454886,-1.0033427118857928e-22,-1.5624075919226326e-88,-1.3510512001553066,7.7959007146670585e-22,1.21397946266812e-87,-0.13479130913651716,0.0,70.0,255.0,255.0,255.0
87,4.3500000000000005,-1.3871275680463623e-23,-2.1600382577229566e-89,-3.575999472758792,-2.8398572060626006e-23,-4.4222322105564424e-89,-1.3577035103318424,2.0604636506080004e-21,3.20855876307696e-87,-0.13149919389441322,0.0,70.0,255.0,255.0,255.0
88,4.4,-1.2591365028549019e-23,-1.9607302749325616e-89,-3.644048945378673,1.0571209387222075e-22,1.646151171154327e-88,-1.3642011195447479,2.9754268058279206e-21,4.633341504916231e-87,-0.1284600262147606,0.0,70.0,255.0,255.0,255.0
89,4.45,-3.3000662932415473e-24,-5.138870865686292e-90,-3.712419584713267,2.6914410852216606e-22,4.1911182838605874e-88,-1.3705495129533185,2.912197954994429e-21,4.534881392134711e-87,-0.1253856057231051,0.0,70.0,255.0,255.0,255.0
90,4.5,1.4323045823667587e-23,2.2303880089280258e-89,-3.7811038966740047,3.9693188937166366e-22,6.181032563289039e-88,-1.3767396801170584,1.0530848929400557e-21,1.6398662313260126e-87,-0.12199055426029837,0.0,70.0,255.0,255.0,255.0
91,4.55,3.639312264392482e-23,5.66714547672041e-89,-3.8500935527249727,3.7445259781617164e-22,5.8309845151866e-88,-1.3827485683793483,-2.9094697557900486e-21,-4.530633034022664e-87,-0.11812096400634076,0.0,70.0,255.0,255.0,255.0
92,4.6000000000000005,5.1768305605284754e-23,8.061372524114626e-89,-3.9193787535119395,1.0598491379265882e-22,1.6503995292663746e-88,-1.3885517765176925,-7.689755031217928e-21,-1.19745043228736e-86,-0.11386095449803513,0.0,70.0,255.0,255.0,255.0
93,4.65,4.69916140231907e-23,7.317545005986785e-89,-3.988948730376742,-3.9452290530562114e-22,-6.143519807687001e-88,-1.3941346638291519,-1.1104444013552161e-20,-1.7291865905164996e-86,-0.10939847001196767,0.0,70.0,255.0,255.0,255.0
94,4.7,1.2316015074722641e-23,1.9178527164276242e-89,-4.058792219894855,-1.0044594875625574e-21,-1.564146637589862e-87,-1.3994916235188892,-1.086847072973737e-20,-1.6924407761745397e-86,-0.10491578941791424,0.0,70.0,255.0,255.0,255.0
95,4.75,-5.345433473306503e-23,-8.323921369911836e-89,-4.128897892728631,-1.4813699782793583e-21,-2.30679275694324e-87,-1.4046262427709433,-3.930166325135497e-21,-6.120064092925142e-87,-0.10059303740810321,0.0,70.0,255.0,255.0,255.0
96,4.800000000000001,-1.358209827532132e-22,-2.115007485300478e-88,-4.199254844171949,-1.397476120076107e-21,-2.1761530468823763e-87,-1.4095509272596995,1.0858288951693491e-20,1.6908552673422552e-86,-0.09653089544405802,0.0,70.0,255.0,255.0,255.0
97,4.8500000000000005,-1.9320194674067574e-22,-3.00854518387356e-88,-4.269852985454601,-3.9554108311000906e-22,-6.159374896009846e-88,-1.414279332315349,2.869855647426371e-20,4.468945852841746e-86,-0.09269335175021709,0.0,70.0,255.0,255.0,255.0
98,4.9,-1.7537509106421412e-22,-2.7309449749014626e-88,-4.340682777403484,1.4723795273502645e-21,2.2927928059593694e-87,-1.4188202624347213,4.1442349248380736e-20,6.453412211574376e-86,-0.08899056926212623,0.0,70.0,255.0,255.0,255.0
99,4.95,-4.5963994005649297e-23,-7.157523779141904e-89,-4.411735011698073,3.748693841728065e-21,5.837474721973391e-87,-1.4231783892415617,4.0561684963955086e-20,6.3162749654846904e-86,-0.08533743707150876,0.0,70.0,255.0,255.0,255.0
100,5.0,1.9949429310859236e-22,3.1065297470719287e-88,-4.48300061632764,5.5285480237457735e-21,8.60906777144406e-87,-1.4273540061418721,1.466758040760192e-20,2.284039014037453e-86,-0.08164531475474135,0.0,70.0,255.0,255.0,255.0
101,5.050000000000001,5.068908083689281e-22,7.89331539352987e-88,-4.55447041231226,5.215451882488257e-21,8.121513736010844e-87,-1.4313429207170358,-4.052368605098399e-20,-6.310357765966759e-86,-0.07786268032408117,0.0,70.0,255.0,255.0,255.0
102,5.1000000000000005,7.21039481357418e-22,1.1228043483082773e-87,-4.626134908399344,1.476179418647375e-21,2.2987100054773013e-87,-1.4351402741742803,-1.0710447086583693e-19,-1.6678332979079621e-85,-0.07400657090270713,0.0,70.0,255.0,255.0,255.0
103,5.15,6.545087502336656e-22,1.0192025399007172e-87,-4.697984439729688,-5.494995204095437e-21,-8.556819243068777e-87,-1.4387435778073066,-1.5466495297997074e-19,-2.408446225578101e-85,-0.0701174813785066,0.0,70.0,255.0,255.0,255.0
104,5.2,1.7153996094787437e-22,2.671224240013994e-88,-4.770009266180074,-1.39903158793497e-20,-2.178575225030371e-86,-1.442152022312131,-1.5137826912608296e-19,-2.357265908576422e-85,-0.06622826183013686,0.0,70.0,255.0,255.0,255.0
105,5.25,-7.4452283770130455e-22,-1.1593726851296536e-87,-4.842199641960901,-2.0632822116703736e-20,-3.2129478328833e-86,-1.4453664039903202,-5.474015530527223e-20,-8.524149646857296e-86,-0.06237367560029128,0.0,70.0,255.0,255.0,255.0
106,5.300000000000001,-1.8917422507224993e-21,-2.945825408881901e-87,-4.914545906579106,-1.9464331409876923e-20,-3.0309901897161006e-86,-1.44838938987216,1.512364552522424e-19,2.355057579652479e-85,-0.058571669972096174,0.0,70.0,255.0,255.0,255.0
107,5.3500000000000005,-2.690955978688997e-21,-4.190362874845754e-87,-4.987038580948117,-5.509176591479496e-21,-8.578902532308208e-87,-1.4512235709875299,3.9971932698908407e-19,6.224438606347675e-85,-0.054800364638829535,0.0,70.0,255.0,255.0,255.0
108,5.4,-2.442659909870449e-21,-3.803715662112722e-87,-5.059668263677859,2.0507601289031486e-20,3.193448416631574e-86,-1.453869426336043,5.772174626715023e-19,8.988443681154963e-85,-0.051019505224125794,0.0,70.0,255.0,255.0,255.0
109,5.45,-6.401958497858485e-22,-9.969144582141799e-88,-5.1324255235817215,5.2212569675670736e-20,8.130553427924143e-86,-1.4563255215099424,5.649513915403767e-19,8.797436137757221e-85,-0.04719622889544084,0.0,70.0,255.0,255.0,255.0
110,5.5,2.778597057696625e-21,4.326837765811421e-87,-5.205300815828854,7.700274044306915e-20,1.1990884554388795e-85,-1.458589049225587,2.0429304081348676e-19,3.181255957339176e-85,-0.043312010815910185,0.0,70.0,255.0,255.0,255.0
111,5.550000000000001,7.060078194521068e-21,1.0993970096174616e-86,-5.27828442850428,7.264187375701941e-20,1.131180938526332e-85,-1.4606567225915335,-5.644221349579855e-19,-8.789194542013241e-85,-0.039356840253468306,0.0,70.0,255.0,255.0,255.0
112,5.6000000000000005,1.0042784433398566e-20,1.5638647151074741e-86,-5.351366488088007,2.0560526947270604e-20,3.201690012375554e-86,-1.462524733250934,-1.4917728370904984e-18,-2.322992112748274e-84,-0.03531374210359317,0.0,70.0,255.0,255.0,255.0
113,5.65,9.116130889248128e-21,1.419566010855017e-86,-5.424536901829374,-7.653540995203045e-20,-1.1918111742219421e-85,-1.4641880968018928,-2.1542048977060386e-18,-3.3545328499041758e-84,-0.03116356532393283,0.0,70.0,255.0,255.0,255.0
114,5.7,2.389243438195521e-21,3.720535408855319e-87,-5.497785297768196,-1.9485996282333324e-19,-3.0343638486666204e-85,-1.4656410897833272,-2.108427297035424e-18,-3.2832478642452463e-84,-0.026893023055052367,0.0,70.0,255.0,255.0,255.0
115,5.75,-1.0369865393085196e-20,-1.6147978378116035e-86,-5.571101010807706,-2.8737813965557287e-19,-4.4750590384671884e-85,-1.466877399107398,-7.624320079486748e-19,-1.1872608864670974e-84,-0.022474318431875417,0.0,70.0,255.0,255.0,255.0
116,5.800000000000001,-2.634857052736177e-20,-4.1030054975816566e-86,-5.644473037678936,-2.7110316361820073e-19,-4.221624735133718e-85,-1.4678885216265147,2.1064520845796982e-18,3.280172058840047e-84,-0.01790716947978055,0.0,70.0,255.0,255.0,255.0
117,5.8500000000000005,-3.748018175490527e-20,-5.8364225729453216e-86,-5.717889862970358,-7.673293119760302e-20,-1.1948869796271411e-85,-1.468668116055376,5.567372021372911e-18,8.66952459035833e-84,-0.013303734545733192,0.0,70.0,255.0,255.0,255.0
118,5.9,-3.402186364712207e-20,-5.297892477208798e-86,-5.791339849284474,2.856340385190904e-19,4.447899855224611e-85,-1.469218895081088,8.039602128152652e-18,1.251928703150121e-83,-0.008848005041972584,0.0,70.0,255.0,255.0,255.0
119,5.95,-8.91677790299623e-21,-1.3885227177207102e-86,-5.864811752478467,7.272272816176622e-19,1.132440005187407e-84,-1.4695529165595733,7.868757796601318e-18,1.2253247843205262e-83,-0.00471773949097809,0.0,70.0,255.0,255.0,255.0
120,6.0,3.870086451464415e-20,6.0265075746652716e-86,-5.938295140940431,1.0725098181792223e-18,1.6701147698429875e-84,-1.4696906690301859,2.8454349909812134e-18,4.430917950134476e-84,-0.0010866595123282252,0.0,70.0,255.0,255.0,255.0
121,6.050000000000001,9.833420391492599e-20,1.5312624980709165e-85,-6.011780819381485,1.0117707807157836e-18,1.5755318002008545e-84,-1.4696615825108061,-7.861386203360811e-18,-1.224176878115887e-83,0.001977406285025296,0.0,70.0,255.0,255.0,255.0
122,6.1000000000000005,1.398779425862225e-19,2.1781825576673816e-85,-6.085261299191512,2.8637119784314117e-19,4.4593789172710045e-85,-1.4694929284016833,-2.077771524840115e-17,-3.2355106248685044e-83,0.004653994971537401,0.0,70.0,255.0,255.0,255.0
123,6.15,1.269713236992401e-19,1.977200389798017e-85,-6.158730112221654,-1.0660007441243317e-18,-1.6599788246676501e-84,-1.4691961830136524,-3.0004203614904564e-17,-4.672261527610063e-83,0.00727278828884792,0.0,70.0,255.0,255.0,255.0
124,6.2,3.3277868173789344e-20,5.182037329997313e-86,-6.232180917492877,-2.7140491636473154e-18,-4.226323635882963e-84,-1.4687656495727985,-2.936660388936984e-17,-4.57297435085758e-83,0.010175729270933687,0.0,70.0,255.0,255.0,255.0
125,6.25,-1.4443359266549144e-19,-2.2491232460849475e-85,-6.305606677178933,-4.002661133061316e-18,-6.23295317552523e-84,-1.468178610086559,-1.0619307955976191e-17,-1.6536410914070788e-83,0.013700956481077498,0.0,70.0,255.0,255.0,255.0
126,6.300000000000001,-3.6698824513234227e-19,-5.7147494425255e-85,-6.378998778501533,-3.7759799592449345e-18,-5.879964727290042e-84,-1.4673955539246908,2.9339092728863546e-17,4.568690306579542e-83,0.018011343873691743,0.0,70.0,255.0,255.0,255.0
127,6.3500000000000005,-5.220315885899849e-19,-8.12908797337499e-85,-6.4523462325714025,-1.0687518601749613e-18,-1.6642628689456887e-84,-1.4663774756991899,7.754348897223168e-17,1.2075090040438177e-82,0.022917871209759966,0.0,70.0,255.0,255.0,255.0
128,6.4,-4.738634311498384e-19,-7.379012311471188e-85,-6.525636526071452,3.978368937978235e-18,6.195125313148135e-84,-1.4651037668037148,1.119772123314656e-16,1.743711740729014e-82,0.02804589617548814,0.0,70.0,255.0,255.0,255.0
129,6.45,-1.241946947921613e-19,-1.9339626602268545e-85,-6.598856609251774,1.01289693729716e-17,1.5772854538344451e-83,-1.463572886081641,1.0959765776087808e-16,1.7066572619109798e-82,0.03300876180096779,0.0,70.0,255.0,255.0,255.0
130,6.5,5.390335061473216e-19,8.393842226873264e-85,-6.671993814679616,1.4938134714066042e-17,2.3261697932257934e-83,-1.461802890623618,3.9631796832923496e-17,6.171472570614868e-83,0.0374108522356309,0.0,70.0,255.0,255.0,255.0
131,6.550000000000001,1.369618776614443e-18,2.132773527203108e-84,-6.745036898314136,1.409214905626395e-17,2.194432710895932e-83,-1.459831800858078,-1.0949498471209342e-16,-1.7050584348202286e-82,0.04105115761392497,0.0,70.0,255.0,255.0,255.0
132,6.6000000000000005,1.9482484117737166e-18,3.0338169335832585e-84,-6.817976994765424,3.9886362428567e-18,6.211113584055649e-84,-1.4576977748622255,-2.893962406405256e-16,-4.5064849536884227e-82,0.04412356447893728,0.0,70.0,255.0,255.0,255.0
133,6.65,1.768482400900113e-18,2.753884885608673e-84,-6.890806675800358,-1.484747500778861e-17,-2.312052242792491e-83,-1.4554194444101842,-4.1790464571095783e-16,-6.507620810155048e-82,0.047013743559620735,0.0,70.0,255.0,255.0,255.0
134,6.7,4.635009109948555e-19,7.217646907907675e-85,-6.963518939206442,-3.780182832823908e-17,-5.886509451749483e-83,-1.4529964005062634,-4.0902402715414233e-16,-6.369331612558155e-82,0.05010288319837741,0.0,70.0,255.0,255.0,255.0
135,6.75,-2.0117004319237956e-18,-3.1326245661408105e-84,-7.036106315850985,-5.574987772320285e-17,-8.681383855350647e-83,-1.4504091560903465,-1.4790787937571785e-16,-2.3032249191052408e-82,0.053779550660593145,0.0,70.0,255.0,255.0,255.0
136,6.800000000000001,-5.11148686132543e-18,-7.959619164559881e-84,-7.108559854815477,-5.2592616265810867e-17,-8.189734370854724e-83,-1.4476184454402041,4.086408461195098e-16,6.363364708622954e-82,0.05823717252360083,0.0,70.0,255.0,255.0,255.0
137,6.8500000000000005,-7.270962058504882e-18,-1.1322358936995535e-83,-7.180868160395005,-1.4885793111251864e-17,-2.3180191467276924e-83,-1.4445854388379864,1.0800414735898705e-15,1.681843081070987e-81,0.06325975898660019,0.0,70.0,255.0,255.0,255.0
138,6.9,-6.6000661724506165e-18,-1.0277638311287574e-83,-7.253018398699275,5.5411531093176195e-17,8.628696439855148e-83,-1.441292469541544,1.559641370512366e-15,2.428677149989118e-81,0.06842724147482215,0.0,70.0,255.0,255.0,255.0
139,6.95,-1.7298089491872628e-18,-2.6936624971403855e-84,-7.3249974073491595,1.4107834393998474e-16,2.196875235316349e-82,-1.4377427146905042,1.526498450855692e-15,2.3770669188321656e-81,0.07332655855138981,0.0,70.0,255.0,255.0,255.0
140,7.0,7.507768221547856e-18,1.1691114041875917e-83,-7.396792670168326,2.080613761787454e-16,3.2399365628176804e-82,-1.4339598136864051,5.519997206699476e-16,8.595752419359452e-82,0.07754702903772781,0.0,70.0,255.0,255.0,255.0
141,7.050000000000001,1.9076328668687276e-17,2.9705703131036418e-83,-7.4683933887178,1.962783160069795e-16,3.056450477252294e-82,-1.4299880117867314,-1.5250683997659472e-15,-2.374840039967161e-81,0.08088649261850378,0.0,70.0,255.0,255.0,255.0
142,7.1000000000000005,2.7135599822245808e-17,4.2255618814398865e-83,-7.539791471346999,5.555453620215066e-17,8.650965228505191e-83,-1.4258711644245547,-4.030769653718956e-15,-6.276723828915102e-81,0.083567283024788,0.0,70.0,255.0,255.0,255.0
143,7.15,2.4631782288902343e-17,3.835666835954161e-83,-7.6109805051602555,-2.067986493649161e-16,-3.2202733516628076e-82,-1.4216312834842526,-5.820660836338504e-15,-9.063946518940964e-81,0.08602824625247862,0.0,70.0,255.0,255.0,255.0
144,7.2,6.455734885754197e-18,1.0052885297770784e-83,-7.681954599695424,-5.265115474316998e-16,-8.198849996090445e-82,-1.4172683397993069,-5.6969697762686256e-15,-8.871334514072847e-81,0.08871022991527866,0.0,70.0,255.0,255.0,255.0
145,7.25,-2.801937245426764e-17,-4.363183160136285e-83,-7.752707339140186,-7.764956269917786e-16,-1.2091607865735656e-81,-1.4127602604927247,-2.060091003304073e-15,-3.2079784758332675e-81,0.09205228656830045,0.0,70.0,255.0,255.0,255.0
146,7.300000000000001,-7.119382781342367e-17,-1.1086319335958579e-82,-7.823230625744697,-7.325206477621071e-16,-1.1406828471923713e-81,-1.4080631111424768,5.691632752944275e-15,8.863023689006346e-81,0.09627671714165231,0.0,70.0,255.0,255.0,255.0
147,7.3500000000000005,-1.0127143723047835e-16,-1.5770011632059997e-82,-7.893513650254434,-2.0733235169735112e-16,-3.2285841767293086e-82,-1.4031325887785595,1.5043037141285954e-14,2.3425052234589434e-80,0.10118029306278586,0.0,70.0,255.0,255.0,255.0
148,7.4,-9.192706298315879e-17,-1.4314903512687888e-82,-7.963543884622553,7.717830663664883e-16,1.2018223762665725e-81,-1.3979450818361983,2.172300197484165e-14,3.3827108925774746e-80,0.10635058936729891,0.0,70.0,255.0,255.0,255.0
149,7.45,-2.4093130593829518e-17,-3.75178786939427e-83,-8.033308158438054,1.9649678457868143e-15,3.0598524749045436e-81,-1.3924975298418296,2.126138065421881e-14,3.3108271137459204e-80,0.11137266164844561,0.0,70.0,255.0,255.0,255.0
150,7.5,1.0456972159552267e-16,1.628362123635755e-82,-8.102793637606736,2.897921131788369e-15,4.512649490012493e-81,-1.3868078156713537,7.688364292546356e-15,1.197233866139709e-80,0.11582387130815164,0.0,70.0,255.0,255.0,255.0
151,7.550000000000001,2.656989825850074e-16,4.137470703073067e-82,-8.171988940005189,2.73380427504145e-15,4.257086341044253e-81,-1.3809151427110145,-2.1241462612011166e-14,-3.3077254716058202e-80,0.119487291494913,0.0,70.0,255.0,255.0,255.0
152,7.6000000000000005,3.7795014909966766e-16,5.885448464680009e-82,-8.240885151877837,7.737748705872526e-16,1.2049240184066727e-81,-1.3748590865218624,-5.614137891142488e-14,-8.742348510944258e-80,0.12256058901307654,0.0,70.0,255.0,255.0,255.0
153,7.65,3.4307646964373266e-16,5.34239472147974e-82,-8.309474848657375,-2.880333616101038e-15,-4.485262169900006e-81,-1.3686590838097068,-8.107134706302809e-14,-1.26244489184158e-79,0.1254395128292174,0.0,70.0,255.0,255.0,255.0
154,7.7,8.991678748956383e-17,1.4001862947800014e-82,-8.377751060258808,-7.333359835715556e-15,-1.1419524900009128e-80,-1.3623151352389407,-7.934855284060655e-14,-1.23561750035764e-79,0.1285127831652133,0.0,70.0,255.0,255.0,255.0
155,7.75,-3.902595139278229e-16,-6.077130178529389e-82,-8.44570636218127,-1.0815188900161694e-14,-1.6841437173476407e-80,-1.3558078054931855,-2.869336616688099e-14,-4.468137616975462e-80,0.13217614428207014,0.0,70.0,255.0,255.0,255.0
156,7.800000000000001,-9.916021025266057e-16,-1.5441250878696406e-81,-8.513331840808126,-1.0202696452403655e-14,-1.588766251698459e-80,-1.3490975208107336,7.927421769510022e-14,1.2344599517522632e-79,0.13662726373180334,0.0,70.0,255.0,255.0,255.0
157,7.8500000000000005,-1.4105291591681884e-15,-2.196479269551398e-81,-8.580616114262343,-2.887767130651673e-15,-4.496837655953774e-81,-1.3421450791200051,2.095224785044128e-13,3.2626888820318e-79,0.14164923899748771,0.0,70.0,255.0,255.0,255.0
158,7.9,-1.280378815591773e-15,-1.993808853465018e-81,-8.647546348720127,1.0749551398037628e-14,1.673922630333341e-80,-1.3349325969109849,3.025623862772702e-13,4.711508478108563e-79,0.14681947120376293,0.0,70.0,255.0,255.0,255.0
159,7.95,-3.3557401936442553e-16,-5.225566392180567e-82,-8.714109373953441,2.7368471497075344e-14,4.261824712513185e-80,-1.3274631319996288,2.9613283070820643e-13,4.611387290055949e-79,0.15172305883766057,0.0,70.0,255.0,255.0,255.0
160,8.0,1.4564683341157618e-15,2.268015859048168e-81,-8.78029266192009,4.036283446885827e-14,6.28530992038929e-80,-1.3197602910272188,1.0708510037497732e-13,1.6675316601762117e-79,0.15594763547994717,0.0,70.0,255.0,255.0,255.0
161,8.05,3.7007094275214024e-15,5.7627532811712335e-81,-8.846085403056163,3.8076981534573077e-14,5.929356372689397e-80,-1.3118683684516341,-2.9585540816838894e-13,-4.607067259848455e-79,0.1592899939037551,0.0,70.0,255.0,255.0,255.0
162,8.1,5.26416648757307e-15,8.1973722317375645e-81,-8.911479498765253,1.0777293652019377e-14,1.6782426605408349e-80,-1.3038312916368433,-7.819485351062257e-13,-1.217652067703276e-78,0.1619723384466809,0.0,70.0,255.0,255.0,255.0
163,8.15,4.77843879272334e-15,7.440995941712068e-81,-8.976468532219847,-4.01178719760495e-14,-6.247164304343364e-80,-1.295671134606966,-1.1291781980460518e-12,-1.7583589020592662e-78,0.1644335580660794,0.0,70.0,255.0,255.0,255.0
164,8.200000000000001,1.2523792899681195e-15,1.9502079273942002e-81,-9.04104661222595,-1.021405261525858e-13,-1.5905346360051828e-79,-1.2873879358302354,-1.1051827699922184e-12,-1.7209931659866154e-78,0.16711432880267552,0.0,70.0,255.0,255.0,255.0
165,8.25,-5.43561382253524e-15,-8.464350418339762e-81,-9.105207325802871,-1.5063614897527135e-13,-2.345709596420952e-79,-1.2789597017266985,-3.9964703533302754e-13,-6.223312879007284e-79,0.170453267179127,0.0,70.0,255.0,255.0,255.0
166,8.3,-1.3811235607559015e-14,-2.150688803681532e-80,-9.16894258239862,-1.4210522968588856e-13,-2.2128659239059112e-79,-1.2703426091123227,1.1041474149784559e-12,1.7193809087641568e-78,0.17467262079460255,0.0,70.0,255.0,255.0,255.0
167,8.35,-1.9646136791124095e-14,-3.0593009657398875e-80,-9.232241586714103,-4.022140747742576e-14,-6.263286876567951e-80,-1.2614924396472382,2.9182716619204897e-12,4.544339382609924e-78,0.17957059136541886,0.0,70.0,255.0,255.0,255.0
168,8.4,-1.783337635530159e-14,-2.7770174913383272e-80,-9.295091826363343,1.4972193650616042e-13,2.3314734587040134e-79,-1.2523855499757808,4.214150405906936e-12,6.562284760426208e-78,0.18473711238122803,0.0,70.0,255.0,255.0,255.0
169,8.450000000000001,-4.673943140508054e-15,-7.278275070358739e-81,-9.357480141711681,3.811936331132679e-13,5.935956072769414e-79,-1.2430187284091154,4.124598249260666e-12,6.4228339349408665e-78,0.1897597658102157,0.0,70.0,255.0,255.0,255.0
170,8.5,2.02859869560252e-14,3.1589385814310878e-80,-9.419393699204255,5.621817614322271e-13,8.75430739364488e-79,-1.2334095733947592,1.4915030409571325e-12,2.3225719855852925e-78,0.19421934242451755,0.0,70.0,255.0,255.0,255.0
171,8.55,5.154423300271466e-14,8.026479886609007e-80,-9.480821099051157,5.303439372089812e-13,8.258528058354707e-79,-1.2235967941666637,-4.1207342517454335e-12,-6.416816909071783e-78,0.19790017559984108,0.0,70.0,255.0,255.0,255.0
172,8.6,7.332038067692331e-14,1.1417466639785795e-79,-9.541753378620921,1.5010833625768372e-13,2.3374904845730953e-79,-1.213619555834775,-1.0891138112575732e-11,-1.6959705462736426e-77,0.2009943403807668,0.0,70.0,255.0,255.0,255.0
173,8.65,6.655506662848304e-14,1.0363970371182102e-79,-9.602183054634635,-5.587698740485922e-13,-8.70117740438172e-79,-1.203497360128587,-1.5727423425581694e-11,-2.4490780139645567e-77,0.20388810895859422,0.0,70.0,255.0,255.0,255.0
174,8.700000000000001,1.744339327206409e-14,2.716289235404075e-80,-9.66210311463378,-1.4226340063004857e-12,-2.2153289655072475e-78,-1.1932307449389157,-1.539321022705045e-11,-2.3970342573776843e-77,0.20696026762951902,0.0,70.0,255.0,255.0,255.0
175,8.75,-7.570833400156555e-14,-1.1789319283890374e-79,-9.721506129128526,-2.0980908967536373e-12,-3.2671519978158566e-78,-1.182801333365635,-5.5663651284955015e-12,-8.667956654440449e-78,0.2105932792073162,0.0,70.0,255.0,255.0,255.0
176,8.8,-1.9236569640329966e-13,-2.995523074275449e-79,-9.780383247970343,-1.979270519150036e-12,-3.0821246309512924e-78,-1.172171417018184,1.5378789592003282e-11,2.3947886727522983e-77,0.21497982365872303,0.0,70.0,255.0,255.0,255.0
177,8.85,-2.7363538591656916e-13,-4.26105655934033e-79,-9.838723270830345,-5.602119375533091e-13,-8.723633250635584e-79,-1.1613033509997628,4.0646280788382444e-11,6.32944824683358e-77,0.21992393522243248,0.0,70.0,255.0,255.0,255.0
178,8.9,-2.4838689015863057e-13,-3.867886399339008e-79,-9.89651358307032,2.085357559688208e-12,3.2473236158822867e-78,-1.1501790234959408,5.869554329641984e-11,9.140083579815606e-77,0.22503856367386277,0.0,70.0,255.0,255.0,255.0
179,8.950000000000001,-6.509962994774834e-14,-1.0137329434580431e-79,-9.953741173179939,5.309342392088676e-12,8.267720254752047e-78,-1.1387994946323765,5.7448242658941135e-11,8.945853636016648e-77,0.22994601681816107,0.0,70.0,255.0,255.0,255.0
180,9.0,2.8254734905023704e-13,4.39983385541304e-79,-10.010393532533557,7.830181825582322e-12,1.2193177251898936e-77,-1.1271844218141247,2.0773957473024897e-11,3.2349254632176462e-77,0.23428362466137997,0.0,70.0,255.0,255.0,255.0
181,9.05,7.17918552610484e-13,1.1179444308440894e-78,-10.066459615361351,7.386738139391165e-12,1.1502645717969693e-77,-1.1153711321662385,-5.7394424116267657e-11,-8.93747300010201e-77,0.23786687009206275,0.0,70.0,255.0,255.0,255.0
182,9.1,1.0212211629893537e-12,1.5902479573382733e-78,-10.121930645750181,2.0907394139555557e-12,3.255704251796926e-78,-1.1033977348049184,-1.5169398504095406e-10,-2.362182244106066e-76,0.24083980217941559,0.0,70.0,255.0,255.0,255.0
183,9.15,9.269924940060396e-13,1.443514856023782e-78,-10.176799388841843,-7.782660364704241e-12,-1.2119176723090967e-77,-1.091287151948297,-2.1905474976009772e-10,-3.411125630529786e-76,0.24350859205721775,0.0,70.0,255.0,255.0,255.0
184,9.200000000000001,2.4295512651892955e-13,3.783302850291765e-79,-10.231059360945011,-1.9814735562054218e-11,-3.0855552053500936e-77,-1.0790468755991967,-2.1439976040871407e-10,-3.338638028668891e-76,0.2461817257040977,0.0,70.0,255.0,255.0,255.0
185,9.25,-1.054481062199382e-12,-1.642040349326312e-78,-10.284704076401763,-2.922263640557565e-11,-4.550555700977988e-77,-1.0666689793778872,-7.752946476360593e-11,-1.2072906187426826e-76,0.2491442034990854,0.0,70.0,255.0,255.0,255.0
186,9.3,-2.6793085140386357e-12,-4.172225415948812e-78,-10.3377262588828,-2.756768203841481e-11,-4.292845824092776e-77,-1.0541324552492881,2.1419890687306796e-10,3.335510332765581e-76,0.2525587565795462,0.0,70.0,255.0,255.0,255.0
187,9.35,-3.811249266040863e-12,-5.934886173419088e-78,-10.390117321926692,-7.802745718268851e-12,-1.2150453682124071e-77,-1.0414131037199326,5.661296593754398e-10,8.815784151740999e-76,0.2564278117711538,0.0,70.0,255.0,255.0,255.0
188,9.4,-3.459583085865521e-12,-5.387270784161219e-78,-10.441867569254793,2.9045283899129164e-11,4.522938327648223e-77,-1.0284896740721727,8.175234557439732e-10,1.2730494164137625e-75,0.2606969515472457,0.0,70.0,255.0,255.0,255.0
189,9.450000000000001,-9.067208761279469e-13,-1.4119478457708653e-78,-10.492966289333909,7.394959985612848e-11,1.151544879592522e-76,-1.015343408565208,8.001507989759133e-10,1.2459966751073867e-75,0.2653065675460198,0.0,70.0,255.0,255.0,255.0
190,9.5,3.935376899747327e-12,6.128178011764e-78,-10.543401910111314,1.0906036379672049e-10,1.698290507872209e-76,-1.0019590173175708,2.89343901581396e-10,4.505669928648923e-76,0.2702075333690601,0.0,70.0,255.0,255.0,255.0
191,9.55,9.999315503544102e-12,1.5570957232951226e-77,-10.593162191065666,1.0288399001426808e-10,1.6021118724574143e-76,-0.988322655228302,-7.994012033760064e-10,-1.2448294031052156e-75,0.2753401548703849,0.0,70.0,255.0,255.0,255.0
192,9.600000000000001,1.4223775901174135e-11,2.2149296736338145e-77,-10.642234175634144,2.912024345911986e-11,4.534611047669933e-77,-0.9744250018305323,-2.112824652460804e-09,-3.2900954362857943e-75,0.2805299763780411,0.0,70.0,255.0,255.0,255.0
193,9.65,1.2911339849456088e-11,2.010556828062116e-77,-10.69060469124872,-1.0839847523181237e-10,-1.6879835638283797e-76,-0.9602696575904979,-3.0510390732157966e-09,-4.751085102602073e-75,0.28549921947025325,0.0,70.0,255.0,255.0,255.0
194,9.700000000000001,3.383928377992898e-12,5.269461098054347e-78,-10.738261141393194,-2.7598366386245983e-10,-4.29762399783508e-76,-0.9458750798835069,-2.9862034354949414e-09,-4.650122897562663e-75,0.28996076868050835,0.0,70.0,255.0,255.0,255.0
195,9.75,-1.4687026536789897e-11,-2.2870671697729644e-77,-10.78519219923707,-4.070188187813065e-10,-6.338106461391043e-76,-0.931273580722447,-1.0798461415619812e-09,-1.6815389095853068e-75,0.2936336816706131,0.0,70.0,255.0,255.0,255.0
196,9.8,-3.7317953500137756e-11,-5.8111603515856084e-77,-10.831388499465438,-3.8396827801865796e-10,-5.979162907420387e-76,-0.9165117117164456,2.9834059066309586e-09,4.645766579144309e-75,0.29640528594327975,0.0,70.0,255.0,255.0,255.0
197,9.850000000000001,-5.30838543386557e-11,-8.266230077193352e-77,-10.876843370408714,-1.0867822811821064e-10,-1.6923398822467334e-76,-0.9016330521281191,7.885168950467783e-09,1.2278803329969088e-74,0.29854207292920876,0.0,70.0,255.0,255.0,255.0
198,9.9,-4.818577631195882e-11,-7.503500233832342e-77,-10.92155180467825,4.045486170281204e-10,6.2996404225487e-76,-0.8866575044235248,1.1386632837119212e-08,1.773129099399453e-74,0.30053973700514547,0.0,70.0,255.0,255.0,255.0
199,9.950000000000001,-1.2628992635843655e-11,-1.9665896546446514e-77,-10.965509120851067,1.0299850555937106e-09,1.6038951111747797e-75,-0.8715790784276045,1.114466294300385e-08,1.735449491514326e-74,0.30291487987490484,0.0,70.0,255.0,255.0,255.0
200,10.0,5.481272924741225e-11,8.535450877915457e-77,-11.00870971252101,1.5190149113285055e-09,2.365413533769196e-75,-0.8563660164360343,4.03004066466653e-09,6.2755886454763315e-75,0.30617373062522546,0.0,70.0,255.0,255.0,255.0
201,10.05,1.392724984970069e-10,2.168754568304731e-76,-11.05114572249467,1.4329891220603636e-09,2.231453975722413e-75,-0.840961705365082,-1.1134222423147823e-08,-1.7338236913472013e-74,0.3105657876034229,0.0,70.0,255.0,255.0,255.0
202,10.100000000000001,1.981116414534486e-10,3.084999063513959e-76,-11.092805883057519,4.055926690137232e-10,6.315898424219945e-76,-0.825309437675692,-2.9427851149410328e-08,-4.582511788359054e-74,0.3158464405300876,0.0,70.0,255.0,255.0,255.0
203,10.15,1.7983176539837922e-10,2.8003444107267254e-76,-11.13367666626224,-1.5097959928806695e-09,-2.3510578126366414e-75,-0.8093770613120732,-4.249549227526106e-08,-6.6174078873376054e-74,0.3215162847244102,0.0,70.0,255.0,255.0,255.0
204,10.200000000000001,4.713204216538165e-11,7.339412508773173e-77,-11.173743589188726,-3.843956558512383e-09,-5.985818044915611e-75,-0.793157809203251,-4.159244833652046e-08,-6.476785676301037e-74,0.32706036449976494,0.0,70.0,255.0,255.0,255.0
205,10.25,-2.0456389045285915e-10,-3.185473634188886e-76,-11.212992447182565,-5.6690408265327156e-09,-8.827843488937679e-75,-0.7766710248620967,-1.504031651710415e-08,-2.3420815672320037e-74,0.3319634238010849,0.0,70.0,255.0,255.0,255.0
206,10.3,-5.1977204048789e-10,-8.093902238060361e-76,-11.251410691674936,-5.347988210222798e-09,-8.327899612147615e-75,-0.7599614668231425,4.155348378596035e-08,6.470718107474373e-74,0.3359527291436848,0.0,70.0,255.0,255.0,255.0
207,10.350000000000001,-7.39362711475139e-10,-1.15133732463365e-75,-11.288988593864879,-1.5136924479366808e-09,-2.3571253814633053e-75,-0.7430757519477282,1.0982623564717358e-07,1.710216682043931e-73,0.33920484560230335,0.0,70.0,255.0,255.0,255.0
208,10.4,-6.711412852815581e-10,-1.0451027619523667e-75,-11.325718266869709,5.6346353544945595e-09,8.774267208291696e-75,-0.7260409822629121,1.5859533626392504e-07,2.469650244995097e-73,0.3421007651233765,0.0,70.0,255.0,255.0,255.0
209,10.450000000000001,-1.7589917602568305e-10,-2.7391060380448054e-76,-11.36159269209117,1.4345841178455823e-08,2.2339377068487665e-74,-0.7088656754353906,1.5522513040307803e-07,2.417169321368982e-73,0.3450178346202648,0.0,70.0,255.0,255.0,255.0
210,10.5,7.634428325640244e-10,1.1888349448964e-75,-11.396604834413248,2.115714839480236e-08,3.294596042198152e-74,-0.6915391988008857,5.613122540375e-08,8.74076740438038e-74,0.34834049957908064,0.0,70.0,255.0,255.0,255.0
211,10.55,1.939815663454553e-09,3.0206854383936716e-75,-11.430746611971259,1.9958963718830823e-08,3.1080144472868045e-74,-0.6740316254774825,-1.5507971272069353e-07,-2.4149048738550294e-73,0.35227541703317655,0.0,70.0,255.0,255.0,255.0
212,10.600000000000001,2.759339204447107e-09,4.2968493921832045e-75,-11.464007996960996,5.6491771227330045e-09,8.796911683431228e-75,-0.656311657097568,-4.0987709143928394e-07,-6.382615549339819e-73,0.3566869043327259,0.0,70.0,255.0,255.0,255.0
213,10.65,2.5047333757278533e-09,3.9003766067367945e-75,-11.496377777681015,-2.1028745425097567e-08,-3.274601102053014e-74,-0.6383629350442099,-5.91885852780439e-07,-9.216860191246628e-73,0.36128960583141634,0.0,70.0,255.0,255.0,255.0
214,10.700000000000001,6.5646466193735e-10,1.0222482901301904e-75,-11.527844290465417,-5.353940815531091e-08,-8.337169022903505e-74,-0.6201826965144264,-5.793080732757911e-07,-9.020998717845826e-73,0.36581412452445505,0.0,70.0,255.0,255.0,255.0
215,10.75,-2.849207439803237e-09,-4.436792416166711e-75,-11.558396047332458,-7.895955275267668e-08,-1.229559981989884e-73,-0.6017815225917644,-2.0948458509789554e-07,-3.2620988050289506e-73,0.3699946711217095,0.0,70.0,255.0,255.0,255.0
216,10.8,-7.239490613330319e-09,-1.127335152976865e-74,-11.588022442724593,-7.448786666510046e-08,-1.1599267827932456e-73,-0.5831832294022554,5.787653670968139e-07,9.012547684672681e-73,0.373692455870156,0.0,70.0,255.0,255.0,255.0
217,10.850000000000001,-1.0297994106313284e-08,-1.6036060244099167e-74,-11.616714370272684,-2.1083016042995293e-08,-3.28305213522616e-74,-0.5644122770047488,1.5296821301099615e-06,2.382024551531534e-72,0.37701294499399296,0.0,70.0,255.0,255.0,255.0
218,10.9,-9.347792217629848e-09,-1.455640366499481e-74,-11.644463670425068,7.84803463458957e-08,1.2220977687382882e-73,-0.5454819349028561,2.2089480748578303e-06,3.439779051999141e-72,0.3801754036263816,0.0,70.0,255.0,255.0,255.0
219,10.950000000000001,-2.4499594717237145e-09,-3.8150825567162835e-75,-11.67126256376297,1.9981179144278774e-07,3.111473838476525e-73,-0.5263947366421107,2.162007162700087e-06,3.3666825550014316e-72,0.38338552742125387,0.0,70.0,255.0,255.0,255.0
220,11.0,1.0633386926648928e-08,1.655833471977044e-74,-11.69710314408928,2.9468106261590437e-07,4.58878032373972e-73,-0.5071433821607307,7.818071149878333e-07,1.2174318479677769e-72,0.386812750665122,0.0,70.0,255.0,255.0,255.0
221,11.05,2.7018146789866724e-08,4.207272068068092e-74,-11.721976901979042,2.779925029415711e-07,4.328905686444302e-73,-0.4877134615755985,-2.1599817556665608e-06,-3.363528586483568e-72,0.39055513244594664,0.0,70.0,255.0,255.0,255.0
222,11.100000000000001,3.8432637220806035e-08,5.984739158421346e-74,-11.74587449024684,7.868288704924827e-08,1.2252517372561518e-73,-0.4680878689161361,-5.708851429000562e-06,-8.889836651192156e-72,0.3946541362060074,0.0,70.0,255.0,255.0,255.0
223,11.15,3.488643549479155e-08,5.4325238053242435e-74,-11.768785688870656,-2.928926399584852e-07,-4.560930964747854e-73,-0.44824804795499773,-8.243906446650884e-06,-1.2837430188871898e-71,0.3991351199898574,0.0,70.0,255.0,255.0,255.0
224,11.200000000000001,9.143373224957514e-09,1.4238081936734922e-74,-11.790699295042339,-7.457077576158402e-07,-1.1612178451615748e-72,-0.42817435691715033,-8.068720577524556e-06,-1.256463034822114e-71,0.4040444184695957,0.0,70.0,255.0,255.0,255.0
225,11.25,-3.968434026679246e-08,-6.179654646291506e-74,-11.811603124562371,-1.0997646977109408e-06,-1.7125561312968996e-72,-0.40784360610803816,-2.917743874853438e-06,-4.543517511368211e-72,0.4095783821620458,0.0,70.0,255.0,255.0,255.0
226,11.3,-1.0083309654613657e-07,-1.5701753119295505e-73,-11.831483655653143,-1.037482145101184e-06,-1.615569596298396e-72,-0.38721651870094576,8.061161655569428e-06,1.255285957746701e-71,0.41576664138691655,0.0,70.0,255.0,255.0,255.0
227,11.350000000000001,-1.4343255477691086e-07,-2.2335350609275467e-73,-11.850324776432466,-2.9364853215399796e-07,-4.572701735501988e-73,-0.3662669419693465,2.1305723585892294e-05,3.317732205323708e-71,0.42190039363205756,0.0,70.0,255.0,255.0,255.0
228,11.4,-1.3019794976153637e-07,-2.0274454854797493e-73,-11.868110349850078,1.0930902134880453e-06,1.702162609025312e-72,-0.34502647933774,3.076667771174571e-05,4.790994170348845e-71,0.42683507212455396,0.0,70.0,255.0,255.0,255.0
229,11.450000000000001,-3.412353342810632e-08,-5.3137245190223446e-74,-11.88482742436624,2.783019239020573e-06,4.333723996798647e-72,-0.3235834347568911,3.011287514739814e-05,4.6891838837883165e-71,0.42935614602104266,0.0,70.0,255.0,255.0,255.0
230,11.5,1.4810397414052096e-07,2.306278511318898e-73,-11.900468693325767,4.104377728227859e-06,6.391346492813629e-72,-0.30209086473563573,1.088916838442591e-05,1.6956638197505075e-71,0.4276936740669868,0.0,70.0,255.0,255.0,255.0
231,11.55,3.7631423939467964e-07,5.859974040911394e-73,-11.915036510839803,3.871936077463164e-06,6.029387816549155e-72,-0.28081406735019243,-3.0084664866611174e-05,-4.684790972338449e-71,0.42123816214338916,0.0,70.0,255.0,255.0,255.0
232,11.600000000000001,5.352975818868375e-07,8.335666327868052e-73,-11.928550100060786,1.0959112415667417e-06,1.7065555204751786e-72,-0.2599670485212968,-7.951404291456858e-05,-1.2381945156175616e-70,0.41325347341416574,0.0,70.0,255.0,255.0,255.0
233,11.65,4.859053635513538e-07,7.566529561386573e-73,-11.941033215691933,-4.079468213993695e-06,-6.352557339626462e-72,-0.23948872000877586,-0.00011482280440033194,-1.7880233662508193e-70,0.40921540736480466,0.0,70.0,255.0,255.0,255.0
234,11.700000000000001,1.273507604874679e-07,1.983108988241589e-73,-11.952498972061663,-1.0386369198466453e-05,-1.6173678142033013e-71,-0.21904550778481635,-0.00011238278001206802,-1.750027250033115e-70,0.4147167317135825,0.0,70.0,255.0,255.0,255.0
235,11.75,-5.527315562952915e-07,-8.607148580646442e-73,-11.962937766470414,-1.5317746215200497e-05,-2.3852829839957615e-71,-0.1980170468374176,-4.0638929662850214e-05,-6.328303527865202e-71,0.43683032483272655,0.0,70.0,255.0,255.0,255.0
236,11.8,-1.404423861032582e-06,-2.1869720851716027e-72,-11.972300676745405,-1.4450262164751475e-05,-2.2501981669898216e-71,-0.1753624753015437,0.00011227749781087527,1.748387793160709e-70,0.4781987519958619,0.0,70.0,255.0,255.0,255.0
237,11.850000000000001,-1.997757772770439e-06,-3.110913025054466e-72,-11.980474014000569,-4.089996434112971e-06,-6.36895190835052e-72,-0.15019717163783142,0.00029675044807238207,4.6210048419378747e-70,0.5280940110791832,0.0,70.0,255.0,255.0,255.0
238,11.9,-1.8134235044438791e-06,-2.8238672760066547e-72,-11.987320393909188,1.5224782642486735e-05,2.3708066749480535e-71,-0.12255307419362538,0.00042852453988958205,6.672994047968391e-70,0.5681548601879527,0.0,70.0,255.0,255.0,255.0
239,11.950000000000001,-4.7527950852176543e-07,-7.401063501064123e-73,-11.992729321419931,3.8762457554845235e-05,6.0360988571333396e-71,-0.09338168561903615,0.0004194182449008739,6.531190611753627e-70,0.5811296543978273,0.0,70.0,255.0,255.0,255.0
240,12.0,2.0628222510406444e-06,3.212231581126686e-72,-11.996658562471092,5.716660713257413e-05,8.90199728670168e-71,-0.06444010875384265,0.0001516665502669749,2.3617550291710333e-70,0.5514530918713234,0.0,70.0,255.0,255.0,255.0
241,12.05,5.241381204735648e-06,8.161890936595269e-72,-11.999173332295316,5.3929112581542726e-05,8.397853886304373e-71,-0.03823637643190381,-0.0004190253263768897,-6.525072075408989e-70,0.47253391612027684,0.0,70.0,255.0,255.0,255.0
242,12.100000000000001,7.4557335091949175e-06,1.161008546743106e-71,-12.000482200114282,1.5264074494885156e-05,2.376925211292691e-71,-0.017186717141814967,-0.0011074877493749598,-1.7245824852133946e-69,0.3557142584918793,0.0,70.0,255.0,255.0,255.0
243,12.15,6.767788654224163e-06,1.053881614788796e-71,-12.000892004009497,-5.681966235595325e-05,-8.847970965829571e-71,-0.002664950582715875,-0.0015992753551579966,-2.490395282562275e-69,0.2231922847498069,0.0,70.0,255.0,255.0,255.0
244,12.200000000000001,1.7737672735995918e-06,2.762114501601489e-72,-12.000748695172554,-0.0001446634610209145,-2.2527027614330058e-70,0.0051325113331657235,-0.0015652901995914278,-2.437473519698138e-69,0.09875998869190994,0.0,70.0,255.0,255.0,255.0
245,12.25,-7.698557447867287e-06,-1.1988211466442097e-71,-12.00037875287618,-0.00021334868231509606,-3.3222706162810956e-70,0.007211048286475119,-0.0005660272714050503,-8.814189763897623e-70,0.005233484838562674,0.0,70.0,255.0,255.0,255.0
246,12.3,-1.9561100957910012e-05,-3.046059166120947e-71,-12.000027590343906,-0.00020126618816141954,-3.134121737822768e-70,0.005655859817021991,0.0015638238076966847,2.435190050847525e-69,-0.04517805284312004,0.0,70.0,255.0,255.0,255.0
247,12.350000000000001,-2.782517626400924e-05,-4.332942884466978e-71,-11.999813166894478,-5.696630154542758e-05,-8.870805654335705e-71,0.002693243002163115,0.004133200549427459,6.43622945665979e-69,-0.05738200075668942,0.0,70.0,255.0,255.0,255.0
248,12.4,-2.525773111245277e-05,-3.933139731554517e-71,-11.99975826604369,0.0002120538667813264,3.302107718837022e-70,-8.234025864695127e-05,0.005968576880742402,9.294281725452258e-69,-0.04400017634225151,0.0,70.0,255.0,255.0,255.0
249,12.450000000000001,-6.6197895858766e-06,-1.0308351656299556e-71,-11.999821400920343,0.0005398913865288127,8.407201160018689e-70,-0.0017067746320620358,0.0060364278681501495,9.096775017617198e-69,-0.018673665109325555,0.0,70.0,255.0,255.0,255.0
250,12.5,2.87314075404285e-05,4.474061428464172e-71,-11.999928943506896,0.0008156966535963414,1.239888273645422e-69,-0.0019497067695795067,0.0036212537241644255,3.2895004026419414e-69,0.003715532877457406,0.0,70.0,255.0,255.0,255.0
251,12.55,7.494987577375755e-05,1.1368047570824264e-70,-12.000016371597301,0.0009020167589452552,1.169670156266063e-69,-0.0013352213443162952,-0.0015964563845965085,-9.088252995849203e-69,0.014252700844785693,0.0,70.0,255.0,255.0,255.0
252,12.600000000000001,0.00011893308343495404,1.6170762991124803e-70,-12.000062465641328,0.0006560510151366906,3.3106297406050164e-70,-0.0005244366851009374,-0.00957393915696001,-2.4020335341425756e-68,0.014761063883028669,0.0,70.0,255.0,255.0,255.0
253,12.65,0.0001405549772874266,1.467867731142928e-70,-12.000068815265811,-5.53771567507458e-05,-1.232363377876513e-69,0.00014088504398657165,-0.019982071794852157,-3.468673161924677e-68,0.010221940434007593,0.0,70.0,255.0,255.0,255.0
254,12.700000000000001,0.00011339536775987946,3.8471292123596715e-71,-12.00004837713693,-0.0013421561643485252,-3.137610187864176e-69,0.0004977573582998218,-0.032233754606343784,-3.394962655077063e-68,0.003867538876889398,0.0,70.0,255.0,255.0,255.0
255,12.75,6.339360852574108e-06,-1.6697424567212474e-70,-12.000019039529981,-0.003278752617385124,-4.627326032953576e-69,0.0005276389316755115,-0.045725794152059886,-1.2276582634178e-68,-0.0013998587739649793,0.0,70.0,255.0,255.0,255.0
256,12.8,-0.00021447989397863296,-4.242613111717609e-70,-11.999995613243762,-0.005914735579554514,-4.365268451281976e-69,0.0003577714809033239,-0.05995338288469748,3.391782193254926e-68,-0.0038711654545053875,0.0,70.0,255.0,255.0,255.0
257,12.850000000000001,-0.0005851341971028773,-6.035010908003223e-70,-11.99998326238189,-0.009274090905854872,-1.23554383969865e-69,0.0001405223862249727,-0.07409739730154469,8.964511190904326e-68,-0.003955215146511648,0.0,70.0,255.0,255.0,255.0
258,12.9,-0.0011418889845641203,-5.478156951416259e-70,-11.99998156100514,-0.013324475309708983,4.5992427396223516e-69,-3.7750033747840916e-05,-0.08691264401369223,1.2945264475153481e-67,-0.002738960683856817,0.0,70.0,255.0,255.0,255.0
259,12.950000000000001,-0.0019175817280737755,-1.4357681683808713e-70,-11.999987037385266,-0.017965355307224096,1.1709720635454833e-68,-0.000133373682160709,-0.0971517590931286,1.2670173118546535e-67,-0.0010363039187666345,0.0,70.0,255.0,255.0,255.0
260,13.0,-0.00293842451528653,6.231563684038574e-70,-11.999994898373355,-0.023039651219021844,1.7269415858168886e-68,-0.00014138042562450437,-0.10384609576394407,4.581683013406997e-68,0.00037509102757127266,0.0,70.0,255.0,255.0,255.0
261,13.05,-0.00422154684997596,1.5833647689788016e-69,-12.000001175427828,-0.028349964883618503,1.629140364886183e-68,-9.586457940358173e-05,-0.10660754121414637,-1.26583034734348e-67,0.0010372756566567887,0.0,70.0,255.0,255.0,255.0
262,13.100000000000001,-0.00577342100364838,2.2522967332900406e-69,-12.000004484831296,-0.03370040534043648,4.611112384734085e-69,-3.76528599588255e-05,-0.10590220590260324,-3.3456011229474713e-67,0.0010597967046166445,0.0,70.0,255.0,255.0,255.0
263,13.15,-0.007591587384019608,2.0444760074522101e-69,-12.000004940713824,-0.03894018547387883,-1.7164607580612885e-68,1.0115091058082726e-05,-0.10280763187066465,-4.831238473868923e-67,0.0007339023040842108,0.0,70.0,255.0,255.0,255.0
264,13.200000000000001,-0.009667439551036263,5.358359752287521e-70,-12.00000347332219,-0.043981168527502945,-4.370127235395514e-68,3.5737370449595574e-05,-0.09873142347335995,-4.728572981910906e-67,0.00027767679817713997,0.0,70.0,255.0,255.0,255.0
265,13.25,-0.011989704236769903,-2.3256512279433046e-69,-12.000001366976779,-0.04881332782121482,-6.445033739972195e-68,3.788277087579672e-05,-0.09524301626535267,-1.709907379021024e-67,-0.0001005053382741039,0.0,70.0,255.0,255.0,255.0
266,13.3,-0.014548772333157746,-5.909197764743444e-69,-11.999999685045102,-0.05350547015403821,-6.080034614416538e-68,2.5686836622185183e-05,-0.0932666154288822,4.7241431700484236e-67,-0.00027793717460866674,0.0,70.0,255.0,255.0,255.0
267,13.350000000000001,-0.017340251252173724,-8.405685842359843e-69,-11.999998798293117,-0.05813998936410304,-1.7208905699237711e-68,1.008905341493005e-05,-0.09258114505541856,1.2485953372699457e-66,-0.000283971670889116,0.0,70.0,255.0,255.0,255.0
268,13.4,-0.02036277126956805,-7.630088334667215e-69,-11.99999867613976,-0.06276358465958007,6.4059187582829206e-68,-2.7103304667264183e-06,-0.09259883316565826,1.8030427447960344e-66,-0.00019664852981549075,0.0,70.0,255.0,255.0,255.0
269,13.450000000000001,-0.02361660971813173,-1.9997670840769218e-69,-11.999999069326163,-0.06739987268066887,1.6309536878036576e-67,-9.575799566619025e-06,-0.0928728500437348,1.7647274615788978e-66,-7.440327394192536e-05,0.0,70.0,255.0,255.0,255.0
270,13.5,-0.027102758537634938,8.679448543369361e-69,-11.999999633719717,-0.07205086966395355,2.4053193374071898e-67,-1.0150657860918955e-05,-0.09295079022358377,6.381461214743385e-67,2.6930324281693174e-05,0.0,70.0,255.0,255.0,255.0
271,13.55,-0.030821696684527087,2.2053426289994977e-68,-12.00000008439195,-0.07669495170302724,2.269099809277996e-67,-6.882767138449708e-06,-0.09257476163909081,-1.7630742332850214e-66,7.447304142260691e-05,0.0,70.0,255.0,255.0,255.0
272,13.600000000000001,-0.03477225370793766,3.1370446636149326e-68,-12.000000321996431,-0.08130834582786263,6.4224510412216855e-68,-2.7033537186582635e-06,-0.0918914423139687,-4.6598212367850346e-66,7.608998036090497e-05,0.0,70.0,255.0,255.0,255.0
273,13.65,-0.03895253126731335,2.8475877331216662e-68,-12.000000354727321,-0.08588409593442412,-2.390721427507039e-67,7.262308976407894e-07,-0.09119796786763903,-6.729047131797248e-66,5.2691814822480865e-05,0.0,70.0,255.0,255.0,255.0
274,13.700000000000001,-0.043360663301380074,7.463232361078934e-69,-12.000000249373342,-0.09042814261462653,-6.08680202767508e-67,2.565827763589823e-06,-0.09073754931207059,-6.5860525481245e-66,1.9936296880018745e-05,0.0,70.0,255.0,255.0,255.0
275,13.75,-0.047995345528776004,-3.239214294553414e-68,-12.000000098144545,-0.09495785086563117,-8.976773975631539e-67,2.719860585642664e-06,-0.09075372960020145,-2.3815937479952527e-66,-7.215958852668791e-06,0.0,70.0,255.0,255.0,255.0
276,13.8,-0.05285644838794319,-8.230450739523647e-68,-11.999999977387283,-0.09950351557464668,-8.468395775670333e-67,1.8442318783229439e-06,-0.0913557366161534,6.579882616135243e-66,-1.9954991437032277e-05,0.0,70.0,255.0,255.0,255.0
277,13.850000000000001,-0.05794569708624067,-1.1707610070223748e-67,-11.999999913721357,-0.10409342452724651,-2.3968913594962952e-67,7.243614419394362e-07,-0.09233047496611801,1.7390689609870197e-65,-2.038824860051136e-05,0.0,70.0,255.0,255.0,255.0
278,13.9,-0.06326579084066784,-1.0627342099019942e-67,-11.999999904951139,-0.10873656307125848,8.922293834199865e-67,-1.9459298172819217e-07,-0.09328938860388852,2.5113145782392953e-65,-1.4118729474432712e-05,0.0,70.0,255.0,255.0,255.0
279,13.950000000000001,-0.06881935339336652,-2.7853162360238823e-68,-11.999999933180655,-0.11342236338763537,2.271625442289666e-66,-6.87511505503835e-07,-0.09385191774294727,2.45794827309191e-65,-5.341914466328035e-06,0.0,70.0,255.0,255.0,255.0
280,14.0,-0.07460802717943138,1.2088912323876718e-67,-11.99999997370229,-0.1181217548455532,3.3501776565118964e-66,-7.287844283609957e-07,-0.09365032867162254,8.888228870506668e-66,1.933510596074939e-06,0.0,70.0,255.0,255.0,255.0
281,14.05,-0.08063152887792184,3.0716460329095084e-67,-12.000000006059098,-0.12278739625479762,3.160448329340333e-66,-4.941604458963411e-07,-0.09251418000817829,-2.4556456231255955e-65,5.34692361497946e-06,0.0,70.0,255.0,255.0,255.0
282,14.100000000000001,-0.08688676680491114,4.369339561728005e-67,-12.000000023118334,-0.12737317284637104,8.945320333863008e-67,-1.940920668630497e-07,-0.09067738043231077,-6.490293720269576e-65,5.463014751683204e-06,0.0,70.0,255.0,255.0,255.0
283,14.15,-0.09336884616255894,3.966178066295809e-67,-12.000000025468305,-0.1318551342980287,-3.329845390929243e-66,5.214102927197928e-08,-0.08859627258861469,-9.372353599777455e-65,3.783102187071563e-06,0.0,70.0,255.0,255.0,255.0
284,14.200000000000001,-0.10007228023471401,1.0394941707987615e-67,-12.000000017904231,-0.1362328001052325,-8.477821566391155e-66,1.8421815184410661e-07,-0.08673981468116654,-9.173187837555185e-65,1.4313618734718148e-06,0.0,70.0,255.0,255.0,255.0
285,14.25,-0.1069921261730822,-4.5116435000953465e-67,-12.00000000704649,-0.14052911576614535,-1.2503033228484429e-65,1.9527721661916075e-07,-0.08556094638927647,-3.3171321734031416e-65,-5.180828210882282e-07,0.0,70.0,255.0,255.0,255.0
286,14.3,-0.11412519181132855,-1.1463539057685668e-66,-11.99999999837651,-0.14478889474416015,-1.1794953739794297e-65,1.324098697352838e-07,-0.08529411677770937,9.164594230888854e-65,-1.4327039110639816e-06,0.0,70.0,255.0,255.0,255.0
287,14.350000000000001,-0.12147101564749821,-1.6306597239889642e-66,-11.999999993805503,-0.1490585274439163,-3.3384389975955737e-66,5.200682551276259e-08,-0.08578648349113899,2.4222105920091276e-64,-1.4638100509500873e-06,0.0,70.0,255.0,255.0,255.0
288,14.4,-0.12903104455572018,-1.4801978055281242e-66,-11.999999993175827,-0.15336754309327405,1.242715218029698e-65,-1.397113535972494e-08,-0.08669904085518432,3.497809982087052e-64,-1.0136792738535405e-06,0.0,70.0,255.0,255.0,255.0
289,14.450000000000001,-0.13680776995682561,-3.879445059592663e-67,-11.999999995202616,-0.15772843152943472,3.163966082327495e-65,-4.936110187259146e-08,-0.08768225010581665,3.4234803077128836e-64,-3.8353213938080444e-07,0.0,70.0,255.0,255.0,255.0
290,14.5,-0.14480388770866365,1.683768276799371e-66,-11.999999998111937,-0.16213576810385572,4.666195525742582e-65,-5.2324349297805384e-08,-0.0883898950952533,1.2379705806561906e-64,1.3881962246387047e-07,0.0,70.0,255.0,255.0,255.0
291,14.55,-0.15302134676721119,4.278251019783316e-66,-12.000000000435051,-0.16656742103896005,4.401936662983686e-65,-3.5479139626204415e-08,-0.0886243179159446,-3.420273130042982e-64,3.8389167400509905e-07,0.0,70.0,255.0,255.0,255.0
292,14.600000000000001,-0.16146062981255965,6.085704939783057e-66,-12.000000001659851,-0.17099819989545018,1.2459223956995997e-65,-1.3935181897295479e-08,-0.0884248907313645,-9.039812996009555e-64,3.9222687320261684e-07,0.0,70.0,255.0,255.0,255.0
293,14.65,-0.1701211667567562,5.524173415482916e-66,-12.00000000182857,-0.1754099101120965,-4.63787633302587e-65,3.74354769405727e-09,-0.08791684137993971,-1.3054004568370463e-63,2.7161455307123106e-07,0.0,70.0,255.0,255.0,255.0
294,14.700000000000001,-0.1790016208237693,1.4478286067571868e-66,-12.000000001285496,-0.17978988403344415,-1.1808082172670864e-64,1.3226273409827627e-08,-0.08721929678367213,-1.277660244709601e-63,1.0276739459413875e-07,0.0,70.0,255.0,255.0,255.0
295,14.75,-0.18810015516010062,-6.283908757187949e-66,-12.000000000505942,-0.1841318397904637,-1.7414478780121882e-64,1.4020287153471145e-08,-0.08646343593363415,-4.620169105284449e-64,-3.7196912217041245e-08,0.0,70.0,255.0,255.0,255.0
296,14.8,-0.19741480480281567,-1.5966650173364697e-65,-11.999999999883467,-0.18843622762680756,-1.6428251277955313e-64,9.506582188123502e-09,-0.08573364652355031,1.276463309708304e-63,-1.028634954991503e-07,0.0,70.0,255.0,255.0,255.0
297,14.850000000000001,-0.20694377792278137,-2.271216003514326e-65,-11.999999999555284,-0.19270520444281874,-4.649845683038844e-65,3.7339376035561145e-09,-0.08503386034334481,3.373704139202909e-63,-1.050967313176443e-07,0.0,70.0,255.0,255.0,255.0
298,14.9,-0.21668532524709755,-2.061649585640354e-65,-11.999999999510074,-0.19693961366114204,1.730879011407378e-64,-1.0030909436409274e-09,-0.08435620434767144,4.871820829139483e-63,-7.277947133843554e-08,0.0,70.0,255.0,255.0,255.0
299,14.950000000000001,-0.22663773928889558,-5.403369921069481e-66,-11.999999999655593,-0.2011408248775859,4.406836260835598e-64,-3.5440095302874397e-09,-0.08371245087137602,4.768292948067117e-63,-2.7536195545962983e-08,0.0,70.0,255.0,255.0,255.0
300,15.0,-0.23679940773485614,2.345186675195244e-65,-11.999999999864475,-0.20531085874827965,6.499171959474495e-64,-3.756710498237226e-09,-0.08310442643825189,1.7242705840481577e-63,9.967315861558745e-09,0.0,70.0,255.0,255.0,255.0
301,15.05,-0.24716882516372354,5.958834967367548e-65,-12.000000000031264,-0.20945126752141108,6.131106844883756e-64,-2.547277944131565e-09,-0.08253452256329896,-4.7638259258289184e-63,2.7561952720134286e-08,0.0,70.0,255.0,255.0,255.0
302,15.100000000000001,-0.25774453448699725,8.476293520079e-65,-12.000000000119202,-0.21356431100460954,1.7353460336455767e-64,-1.000515226223797e-09,-0.0820369639326024,-1.2590835257210677e-62,2.816058497501217e-08,0.0,70.0,255.0,255.0,255.0
303,15.15,-0.2685252562641845,7.694181001013125e-65,-12.000000000131315,-0.21765496391467132,-6.459728412326923e-64,2.687805533696519e-10,-0.08166104519206907,-1.8181882859720874e-62,1.950137828998777e-08,0.0,70.0,255.0,255.0,255.0
304,15.200000000000001,-0.2795100308784644,2.0165651077520776e-65,-12.000000000092324,-0.22173041552381645,-1.64465368260753e-63,9.496226027749799e-10,-0.08144418644406848,-1.7795511547558874e-62,7.37845340381682e-09,0.0,70.0,255.0,255.0,255.0
305,15.25,-0.29069829781656614,-8.752355825062176e-65,-12.000000000036353,-0.22579938255907817,-2.4255239959885798e-63,1.006625893751334e-09,-0.08142282101729625,-6.4350654256642e-63,-2.6709301437222166e-09,0.0,70.0,255.0,255.0,255.0
306,15.3,-0.3020899691343722,-2.223867485213372e-64,-11.999999999991662,-0.22987269762554607,-2.28816022517395e-63,6.825295884027582e-10,-0.08160257557759953,1.777884039360738e-62,-7.385558831174421e-09,0.0,70.0,255.0,255.0,255.0
307,15.350000000000001,-0.31368556757912075,-3.1633958076801676e-64,-11.9999999999681,-0.23395964011683812,-6.476399566278419e-64,2.680700106338918e-10,-0.08189744476543859,4.698963688963981e-62,-7.545608582404384e-09,0.0,70.0,255.0,255.0,255.0
308,15.4,-0.325485933146056,-2.871507441841214e-64,-11.999999999964855,-0.23806244210208993,2.4108034637900315e-63,-7.203126983768016e-11,-0.08215877572320673,6.785571060974401e-62,-5.224798371727957e-09,0.0,70.0,255.0,255.0,255.0
309,15.450000000000001,-0.33749181178932974,-7.52592343890136e-65,-11.999999999975303,-0.2421755176891588,6.13793110434656e-63,-2.5440982653890387e-10,-0.08223182899335657,6.641375324216836e-62,-1.9765522552006587e-09,0.0,70.0,255.0,255.0,255.0
310,15.5,-0.3497034849149719,3.2664236625053454e-64,-11.999999999990296,-0.2462856250014256,9.052178788006868e-63,-2.69686495357746e-10,-0.0819602801685193,2.40159911186086e-62,7.149836278586008e-10,0.0,70.0,255.0,255.0,255.0
311,15.55,-0.3621203742894723,8.299586444116731e-64,-12.000000000002272,-0.2503715457060107,8.53953021620742e-63,-1.829114637530438e-10,-0.08127466230580249,-6.635153564860055e-62,1.978328612040059e-09,0.0,70.0,255.0,255.0,255.0
312,15.600000000000001,-0.37474063948557296,1.1805953878712766e-63,-12.000000000008587,-0.25441309123200584,2.4170252231468115e-63,-7.185363415374013e-11,-0.08029773253016015,-1.7536771230134844e-61,2.022026990289305e-09,0.0,70.0,255.0,255.0,255.0
313,15.65,-0.3875616834126729,1.0716611667263543e-63,-12.000000000009457,-0.25840131895902674,-8.997241013927427e-63,1.929123527588672e-11,-0.07926021555149099,-2.532409595792551e-61,1.4004797321831575e-09,0.0,70.0,255.0,255.0,255.0
314,15.700000000000001,-0.40058077138147563,2.8087128647853377e-64,-12.000000000006658,-0.26233911278715494,-2.2907070734778704e-62,6.819433906457562e-11,-0.0784012714752369,-2.478595014211146e-61,5.298872451930947e-10,0.0,70.0,255.0,255.0,255.0
315,15.75,-0.4137955946913884,-1.2190459067515164e-63,-12.000000000002638,-0.26624144610655043,-3.378319115603889e-62,7.227995979519619e-11,-0.07797204898455923,-8.962889904877025e-62,-1.922018100231071e-10,0.0,70.0,255.0,255.0,255.0
316,15.8,-0.4272049159921307,-3.0974478291253556e-63,-11.99999999999943,-0.27013631768561086,-3.186996063965573e-62,4.8974158062264905e-11,-0.07809206191252693,2.4762730220079455e-61,-5.304201522449148e-10,0.0,70.0,255.0,255.0,255.0
317,15.850000000000001,-0.44080922645994947,-4.4060419707170896e-63,-11.99999999999774,-0.2740506522978031,-9.020460935959432e-63,1.9237944570704713e-11,-0.0785862171885865,6.544812123157512e-61,-5.412559289652563e-10,0.0,70.0,255.0,255.0,255.0
318,15.9,-0.454609981221911,-3.999493922721299e-63,-11.999999999997506,-0.2779949394044695,3.35781605919194e-62,-5.151434834260726e-12,-0.07912576999623,9.451081277072783e-61,-3.7498892879739287e-10,0.0,70.0,255.0,255.0,255.0
319,15.950000000000001,-0.4686087204003964,-1.0482259115251495e-63,-11.999999999998256,-0.2819632292974261,8.54903518347684e-62,-1.8260948309034575e-11,-0.07938322496577332,9.250242524422998e-61,-1.4210854715202004e-10,0.0,70.0,255.0,255.0,255.0
320,16.0,-0.4828063041516536,4.5495412607555404e-63,-11.999999999999332,-0.28593326190104684,1.2608058583614937e-61,-1.936228954946273e-11,-0.07901958916129992,3.344996050764762e-61,5.1159076974727213e-11,0.0,70.0,255.0,255.0,255.0
321,16.05,-0.4972020465905011,1.1559832672089788e-62,-12.000000000000192,-0.2898651882135561,1.1894031234241601e-61,-1.3145040611561853e-11,-0.07787671708375243,-9.241576731545812e-61,1.4193091146808e-10,0.0,70.0,255.0,255.0,255.0
322,16.1,-0.5117928229730092,1.6443572494997143e-62,-12.000000000000647,-0.2937209336094221,3.366481852069124e-62,-5.169198402654729e-12,-0.07620457820268767,-2.4425571369616611e-60,1.4548362514688051e-10,0.0,70.0,255.0,255.0,255.0
323,16.150000000000002,-0.5265741399514433,1.4926314524158911e-62,-12.000000000000709,-0.2974856460338249,-1.253154013537501e-61,1.4033219031261979e-12,-0.07447036413726349,-3.5271915512498596e-60,1.007194327939942e-10,0.0,70.0,255.0,255.0,255.0
324,16.2,-0.5415413875763917,3.9120323596221316e-63,-12.000000000000506,-0.30116797002314843,-3.1905433660429474e-61,4.902744876744691e-12,-0.0731384626942777,-3.4522375083480823e-60,3.801403636316536e-11,0.0,70.0,255.0,255.0,255.0
325,16.25,-0.5566909369537582,-1.6979119136270568e-62,-12.000000000000218,-0.30479949230325265,-4.7053915218855836e-61,5.204725539442734e-12,-0.07267351045407988,-1.2483695212571366e-60,-1.4033219031261979e-11,0.0,70.0,255.0,255.0,255.0
326,16.3,-0.572021336806717,-4.314188285923371e-62,-11.999999999999986,-0.3084353210685564,-4.438912887300084e-61,3.4994229736184934e-12,-0.073295242246596,3.4490033904175247e-60,-3.8546943414985435e-11,0.0,70.0,255.0,255.0,255.0
327,16.35,-0.5875344690606138,-6.136824800927142e-62,-11.999999999999869,-0.31212901652791225,-1.2563881314680587e-61,1.3500311979441904e-12,-0.07470381498915213,9.115747335530887e-60,-3.8546943414985435e-11,0.0,70.0,255.0,255.0,255.0
328,16.400000000000002,-0.6032342384595082,-5.57057641739143e-62,-11.99999999999985,-0.31590570256747164,4.676834448230803e-61,-3.552713678800501e-13,-0.07632275014480827,1.3163658077292164e-59,-2.6645352591003757e-11,0.0,70.0,255.0,255.0,255.0
329,16.45,-0.619125039317361,-1.4599903526963383e-62,-11.999999999999904,-0.3197612915423931,1.1907269945824105e-60,-1.3145040611561853e-12,-0.07757080304485742,1.2883925780950048e-59,-1.0302869668521453e-11,0.0,70.0,255.0,255.0,255.0
330,16.5,-0.6352103676137475,6.336693528432676e-62,-11.999999999999982,-0.3236627828719574,1.7560760229180852e-60,-1.3855583347321954e-12,-0.07787443429033702,4.6589784799520745e-60,3.907985046680551e-12,0.0,70.0,255.0,255.0,255.0
331,16.55,-0.6514913176045567,1.6100769876484513e-61,-12.000000000000043,-0.3275487349714268,1.656624842577618e-60,-9.237055564881302e-13,-0.07694865425618147,-1.2871855888515528e-59,1.0125233984581428e-11,0.0,70.0,255.0,255.0,255.0
332,16.6,-0.6679652411108902,2.2902941954208856e-61,-12.000000000000075,-0.3313576482975755,4.6889043406653235e-61,-3.730349362740526e-13,-0.07507545321613351,-3.402043220516189e-59,1.0125233984581428e-11,0.0,70.0,255.0,255.0,255.0
333,16.650000000000002,-0.6846270824343142,2.0789674217149837e-61,-12.00000000000008,-0.33505628029304013,-1.7454183779385715e-60,8.881784197001252e-14,-0.07282418306924221,-4.91274407579188e-59,7.283063041541027e-12,0.0,70.0,255.0,255.0,255.0
334,16.7,-0.7014708691401942,5.44875817482314e-62,-12.000000000000066,-0.33864006660449975,-4.443853641725348e-60,3.552713678800501e-13,-0.07077095915879461,-4.8083465615452106e-59,3.0198066269804258e-12,0.0,70.0,255.0,255.0,255.0
335,16.75,-0.7184910890947642,-2.364886220010365e-61,-12.000000000000044,-0.3421333762089196,-6.553764939483782e-60,3.907985046680551e-13,-0.06948469644034727,-1.7387544398551148e-59,-1.2434497875801753e-12,0.0,70.0,255.0,255.0,255.0
336,16.8,-0.7356842067610861,-6.008889122001469e-61,-12.000000000000027,-0.3455885362485345,-6.182608081580463e-60,2.3092638912203256e-13,-0.06926277476133613,4.8038420163644585e-59,-3.0198066269804258e-12,0.0,70.0,255.0,255.0,255.0
337,16.85,-0.7530499427196177,-8.547494301590828e-61,-12.000000000000021,-0.3490596536850532,-1.7499229231193235e-60,8.881784197001252e-14,-0.06989991993202604,1.2696598148511666e-58,-2.3092638912203256e-12,0.0,70.0,255.0,255.0,255.0
338,16.900000000000002,-0.7705901721295915,-7.758812045120792e-61,-12.000000000000018,-0.3525785282417371,6.513990066931204e-60,0.0,-0.07095580895363218,1.8334610495438307e-58,-1.7763568394002505e-12,0.0,70.0,255.0,255.0,255.0
339,16.95,-0.7883077955437914,-2.033504234659623e-61,-12.000000000000021,-0.3561552345804164,1.6584687572318985e-59,-8.881784197001252e-14,-0.07199170064612348,1.7944993668085835e-58,-1.0658141036401503e-12,0.0,70.0,255.0,255.0,255.0
340,17.0,-0.8062056955876331,8.825875527198193e-61,-12.000000000000027,-0.3597776983063494,2.445898373501704e-59,-1.0658141036401503e-13,-0.07257484521608903,6.4891199114252515e-59,1.7763568394002505e-13,0.0,70.0,255.0,255.0,255.0
341,17.05,-0.8242855653744263,2.242547950035742e-60,-12.000000000000032,-0.36341271910202533,2.3073807483744237e-59,-7.105427357601002e-14,-0.07246812548639125,-1.792818247660627e-58,8.881784197001252e-13,0.0,70.0,255.0,255.0,255.0
342,17.1,-0.8425469674978356,3.1899683010942433e-60,-12.000000000000034,-0.36702451085498855,6.530801258410767e-60,-1.7763568394002505e-14,-0.07177484374610854,-4.7384349373530485e-58,7.105427357601002e-13,0.0,70.0,255.0,255.0,255.0
343,17.150000000000002,-0.8609880164599252,2.8956280758768187e-60,-12.000000000000034,-0.3705902034766362,-2.4310541889786244e-59,0.0,-0.0707409261046732,-6.842569790596135e-58,5.329070518200751e-13,0.0,70.0,255.0,255.0,255.0
344,17.2,-0.8796059878454993,7.589141121156187e-61,-12.000000000000034,-0.37409860346545587,-6.189489664755058e-59,3.552713678800501e-14,-0.06960312403726521,-6.697162811079813e-58,3.552713678800501e-13,0.0,70.0,255.0,255.0,255.0
345,17.25,-0.8983978768064708,-3.293861588878239e-60,-12.00000000000003,-0.3775505158803627,-9.128217000058438e-59,3.552713678800501e-14,-0.06859186675107765,-2.4217725205845902e-58,-3.552713678800501e-13,0.0,70.0,255.0,255.0,255.0
346,17.3,-0.9173610394335355,-8.36930288794282e-60,-12.00000000000003,-0.38095779014056363,-8.611262185339648e-59,0.0,-0.06784355779198004,6.690888789006065e-58,-1.7763568394002505e-13,0.0,70.0,255.0,255.0,255.0
347,17.35,-0.9364936558205271,-1.1905123774217887e-59,-12.00000000000003,-0.3843348716595607,-2.437328211052372e-59,1.7763568394002505e-14,-0.06735613631920767,1.7684079934561028e-57,0.0,0.0,70.0,255.0,255.0,255.0
348,17.400000000000002,-0.9557945265994916,-1.0806631098995192e-59,-12.000000000000028,-0.3876934037724844,9.07281774922138e-59,0.0,-0.06708673371407237,2.5536818112840705e-57,-3.552713678800501e-13,0.0,70.0,255.0,255.0,255.0
349,17.45,-0.9752629961977756,-2.832306024996507e-60,-12.00000000000003,-0.39104354503096794,2.309948990178834e-58,-1.7763568394002505e-14,-0.06700149085029361,2.4994151877510672e-57,0.0,0.0,70.0,255.0,255.0,255.0
350,17.5,-0.9948988811025884,1.2292858802793147e-59,-12.00000000000003,-0.39439355285751376,3.406696962673205e-58,0.0,-0.06706570642749377,9.038178091195831e-58,1.7763568394002505e-13,0.0,70.0,255.0,255.0,255.0
351,17.55,-1.014702351483527,3.123466360173555e-59,-12.00000000000003,-0.3977501156737173,3.213766799298417e-58,0.0,-0.067245382273462,-2.4970736908363637e-57,-1.7763568394002505e-13,0.0,70.0,255.0,255.0,255.0
352,17.6,-1.0346738926699601,4.443052679577732e-59,-12.00000000000003,-0.40111809108485996,9.096232718368413e-59,-1.7763568394002505e-14,-0.0674797718163922,-6.599788480089105e-57,-1.7763568394002505e-13,0.0,70.0,255.0,255.0,255.0
353,17.650000000000002,-1.054814160592013,4.033089632010396e-59,-12.000000000000032,-0.40449809285535654,-3.386021680790689e-58,-1.7763568394002505e-14,-0.06767129987832465,-9.530470266076667e-57,3.552713678800501e-13,0.0,70.0,255.0,255.0,255.0
354,17.7,-1.0751237019554958,1.057030998787043e-59,-12.000000000000032,-0.4078852210726924,-8.620846994239827e-58,1.7763568394002505e-14,-0.06771193820234167,-9.327944469896287e-57,3.552713678800501e-13,0.0,70.0,255.0,255.0,255.0
355,17.75,-1.0956026826992822,-4.587757362229431e-59,-12.00000000000003,-0.4112692866755907,-1.2713966150686976e-57,1.7763568394002505e-14,-0.06750129821471162,-3.373093984419881e-57,-1.7763568394002505e-13,0.0,70.0,255.0,255.0,255.0
356,17.8,-1.1162506306230549,-1.1656935151899934e-58,-12.00000000000003,-0.4146353508941636,-1.1993940978659708e-57,0.0,-0.0669944002937406,9.319205884444848e-57,-1.7763568394002505e-13,0.0,70.0,255.0,255.0,255.0
357,17.85,-1.1370662177886985,-1.658169834088914e-58,-12.00000000000003,-0.41796872670496477,-3.394760266242128e-58,0.0,-0.06624925194012032,2.4630745926900325e-56,0.0,0.0,70.0,255.0,255.0,255.0
358,17.900000000000002,-1.1580475032935513,-1.5051695418142063e-58,-12.00000000000003,-0.4212602760881756,1.2636804948240619e-57,0.0,-0.06538443040919883,3.55681992530226e-56,0.0,0.0,70.0,255.0,255.0,255.0
359,17.95,-1.179192245397516,-3.944893392648521e-59,-12.00000000000003,-0.42450716974588465,3.2173438986780476e-57,0.0,-0.06453024351937842,3.481236269183408e-56,0.0,0.0,70.0,255.0,255.0,255.0
360,18.0,-1.2004982202681398,1.7121743568638415e-58,-12.00000000000003,-0.42771330044011346,4.74491676400747e-57,0.0,-0.06381711936132017,1.2588558128559917e-56,0.0,0.0,70.0,255.0,255.0,255.0
361,18.05,-1.2219635754415274,4.350427424742618e-58,-12.00000000000003,-0.43088888168201667,4.4761997115340393e-57,0.0,-0.06331650373108122,-3.4779749846943033e-56,0.0,0.0,70.0,255.0,255.0,255.0
362,18.1,-1.2435871084363415,6.188374068397881e-58,-12.00000000000003,-0.4340449508132216,1.2669417793131669e-57,0.0,-0.06299958405993067,-9.192319522751217e-56,0.0,0.0,70.0,255.0,255.0,255.0
363,18.150000000000002,-1.2653680705228496,5.617369204055785e-58,-12.00000000000003,-0.43718884008800973,-4.716119811217179e-57,0.0,-0.06279545400966757,-1.3274232674601373e-55,0.0,0.0,70.0,255.0,255.0,255.0
364,18.2,-1.2873059924451424,1.4722542571807021e-58,-12.00000000000003,-0.44032449621418834,-1.2007290895288208e-56,0.0,-0.06263328818603142,-1.2992150629744002e-55,0.0,0.0,70.0,255.0,255.0,255.0
365,18.25,-1.3094005201442684,-6.389921691232422e-58,-12.00000000000003,-0.4434521689066129,-1.770827044096118e-56,0.0,-0.06243824298772793,-4.698113852981982e-56,0.0,0.0,70.0,255.0,255.0,255.0
366,18.3,-1.3316512093358037,-1.623601618378048e-57,-12.00000000000003,-0.44656832051296114,-1.670540474827019e-56,0.0,-0.06216681088906384,1.2979979350332725e-55,0.0,0.0,70.0,255.0,255.0,255.0
367,18.35,-1.3540573521955646,-2.3095326439502613e-57,-12.00000000000003,-0.44966884999551926,-4.728291090628454e-57,0.0,-0.06183334422134035,3.4306203498314846e-55,0.0,0.0,70.0,255.0,255.0,255.0
368,18.400000000000002,-1.3766180943353556,-2.0964307274408934e-57,-12.00000000000003,-0.45275165493509517,1.7600798750044658e-56,0.0,-0.061471981990690594,4.9540110773103234e-55,0.0,0.0,70.0,255.0,255.0,255.0
369,18.45,-1.399332517689074,-5.494527689457956e-58,-12.00000000000003,-0.4558160481945883,4.481181968247478e-56,0.0,-0.06111040327023698,4.84873662497926e-55,0.0,0.0,70.0,255.0,255.0,255.0
370,18.5,-1.4221996991548145,2.3847512408065852e-57,-12.00000000000003,-0.45886269526211887,6.608816499983726e-56,0.0,-0.06077788071543466,1.753359959907194e-55,0.0,0.0,70.0,255.0,255.0,255.0
371,18.55,-1.445218787215286,6.059363731037931e-57,-12.00000000000003,-0.4618938362661318,6.234541928154672e-56,0.0,-0.06048953942587865,-4.844194241663661e-55,0.0,0.0,70.0,255.0,255.0,255.0
372,18.6,-1.4683890827814277,8.619293168961257e-57,-12.00000000000003,-0.46491164920470673,1.7646222583200646e-56,0.0,-0.06022703905503857,-1.280324944705082e-54,0.0,0.0,70.0,255.0,255.0,255.0
373,18.650000000000002,-1.4917099521357566,7.823985989357996e-57,-12.00000000000003,-0.46791654017163564,-6.5687075188961465e-56,0.0,-0.059956618027690034,-1.8488621041781156e-54,0.0,0.0,70.0,255.0,255.0,255.0
374,18.7,-1.5151807367985912,2.0505856500651113e-57,-12.00000000000003,-0.47090731100747574,-1.6723998783461092e-55,0.0,-0.059645098732796775,-1.8095731436942636e-54,0.0,0.0,70.0,255.0,255.0,255.0
375,18.75,-1.5388006832365042,-8.900012794103099e-57,-12.00000000000003,-0.4738810500449153,-2.4664438955838785e-55,0.0,-0.05925023415018771,-6.543628454330574e-55,0.0,0.0,70.0,255.0,255.0,255.0
376,18.8,-1.5625688418030828,-2.2613853305773677e-56,-12.00000000000003,-0.4768323344224945,-2.3267627237791666e-55,0.0,-0.05875503140742033,1.807877903162137e-54,0.0,0.0,70.0,255.0,255.0,255.0
377,18.85,-1.5864839166787537,-3.2167640031894766e-56,-12.00000000000003,-0.47975655318565735,-6.585659924217415e-56,0.0,-0.05821849955898184,4.7782377438372213e-54,0.0,0.0,70.0,255.0,255.0,255.0
378,18.900000000000002,-1.6105444971216485,-2.919951322999109e-56,-12.00000000000003,-0.4826541843783927,2.4514750200580546e-55,0.0,-0.05774154589865965,6.900047308981419e-54,0.0,0.0,70.0,255.0,255.0,255.0
379,18.95,-1.634749335116593,-7.652889831314218e-57,-12.00000000000003,-0.4855307077755233,6.241481316559677e-55,0.0,-0.05742248851168252,6.753418912278988e-54,0.0,0.0,70.0,255.0,255.0,255.0
380,19.0,-1.6590975678992008,3.321529993560569e-56,-12.00000000000003,-0.48839643322956094,9.204893932337042e-55,0.0,-0.0573691547116395,2.4421153857414484e-54,0.0,0.0,70.0,255.0,255.0,255.0
381,19.05,-1.683588978439549,8.439604949205622e-56,-12.00000000000003,-0.49126762324668727,8.683596702301126e-55,0.0,-0.057624134478073685,-6.747092188482128e-54,0.0,0.0,70.0,255.0,255.0,255.0
382,19.1,-1.7082243302238695,1.2005126695861695e-55,-12.00000000000003,-0.4941588466773683,2.4578017438549133e-55,0.0,-0.05805719114742036,-1.7832626030643742e-53,0.0,0.0,70.0,255.0,255.0,255.0
383,19.150000000000002,-1.7330048631072859,1.0897406693060535e-55,-12.00000000000003,-0.4970733423614293,-9.149029328342615e-55,0.0,-0.05843813077885951,-2.5751327131747515e-53,0.0,0.0,70.0,255.0,255.0,255.0
384,19.200000000000003,-1.7579316644600125,2.856097367519079e-56,-12.00000000000003,-0.5000026597552543,-2.3293525387892605e-54,0.0,-0.05853888661460083,-2.5204102505421687e-53,0.0,0.0,70.0,255.0,255.0,255.0
385,19.25,-1.7830051290828113,-1.2396118694832074e-55,-12.00000000000003,-0.5029272310228894,-3.4353131833764303e-54,0.0,-0.05813319362324432,-9.114098697532702e-54,0.0,0.0,70.0,255.0,255.0,255.0
386,19.3,-1.8082243875623014,-3.1497034466245224e-55,-12.00000000000003,-0.5058159791175787,-3.240762408542531e-54,0.0,-0.057120831612289535,2.518049085076646e-53,0.0,0.0,70.0,255.0,255.0,255.0
387,19.35,-1.8335867269945691,-4.4803742780257384e-55,-12.00000000000003,-0.5086393141841183,-9.17264098299784e-55,0.0,-0.05567898293756812,6.655226637873778e-53,0.0,0.0,70.0,255.0,255.0,255.0
388,19.400000000000002,-1.8590883189807133,-4.0669675449243064e-55,-12.00000000000003,-0.5113838774113355,3.414464229331248e-54,0.0,-0.0541413622215714,9.61052612180086e-53,0.0,0.0,70.0,255.0,255.0,255.0
389,19.450000000000003,-1.8847251147357027,-1.0659100486944899e-55,-12.00000000000003,-0.5140534504062755,8.693262023501076e-54,0.0,-0.052847512815445974,9.406299110940765e-53,0.0,0.0,70.0,255.0,255.0,255.0
390,19.5,-1.9104936640213408,4.6262944785767695e-55,-12.00000000000003,-0.5166686286928801,1.2820763340272013e-53,0.0,-0.05212604282325284,3.4014279404389357e-53,0.0,0.0,70.0,255.0,255.0,255.0
391,19.55,-1.9363919776049907,1.1754853291577524e-54,-12.00000000000003,-0.5192660546886008,1.2094689963940012e-53,0.0,-0.052139625319824745,-9.397487121458361e-53,0.0,0.0,70.0,255.0,255.0,255.0
392,19.6,-1.9624202694902009,1.6720984442516783e-54,-12.00000000000003,-0.5218825912248626,3.4232762188136506e-54,0.0,-0.052736993652358066,-2.483764394843074e-52,0.0,0.0,70.0,255.0,255.0,255.0
393,19.650000000000002,-1.988580236727477,1.5178129510391175e-54,-12.00000000000003,-0.5245397540538366,-1.274295398449073e-53,0.0,-0.053605464623940335,-3.586697177402868e-52,0.0,0.0,70.0,255.0,255.0,255.0
394,19.700000000000003,-2.0148742448955845,3.9780304580260516e-55,-12.00000000000003,-0.5272431376872566,-3.2443695555215036e-53,0.0,-0.05442500151782159,-3.510478619322089e-52,0.0,0.0,70.0,255.0,255.0,255.0
395,19.75,-2.0413045504962026,-1.7265566044823866e-54,-12.00000000000003,-0.5299822542056187,-4.784774017771162e-53,0.0,-0.05489065373165403,-1.2694301892002472e-52,0.0,0.0,70.0,255.0,255.0,255.0
396,19.8,-2.0678724703161464,-4.3869709719685574e-54,-12.00000000000003,-0.532732203060422,-4.513799744721751e-53,0.0,-0.05483460650208549,3.507189940075682e-52,0.0,0.0,70.0,255.0,255.0,255.0
397,19.85,-2.094577770802245,-6.240356349204138e-54,-12.00000000000003,-0.5354657148558273,-1.2775840776954796e-53,0.0,-0.05430208674210846,9.269534915584917e-52,0.0,0.0,70.0,255.0,255.0,255.0
398,19.900000000000002,-2.121419041801729,-5.664555049664037e-54,-12.00000000000003,-0.5381624117346329,4.755735170863168e-53,0.0,-0.05342689583271998,1.3385736097431382e-51,0.0,0.0,70.0,255.0,255.0,255.0
399,19.950000000000003,-2.148394011975708,-1.48462117834097e-54,-12.00000000000003,-0.5408084044390993,1.2108152019735905e-52,0.0,-0.05234628064711977,1.3101284566194274e-51,0.0,0.0,70.0,255.0,255.0,255.0
400,20.0,-2.175499882245639,6.443596970071868e-54,-12.00000000000003,-0.5433970397993448,1.7857019737057443e-52,0.0,-0.05119134225028965,4.7375779627570964e-52,0.0,0.0,70.0,255.0,255.0,255.0
401,20.05,-2.2027337159556426,1.6372398558716473e-53,-12.00000000000003,-0.5459275386641282,1.6845729982493e-52,0.0,-0.05005369692341333,-1.3089011048156884e-51,0.0,0.0,70.0,255.0,255.0,255.0
402,20.1,-2.230092636112052,2.328932695256487e-53,-12.00000000000003,-0.5484024094916862,4.768008688900557e-53,0.0,-0.04901186217645126,-3.45943752674966e-51,0.0,0.0,70.0,255.0,255.0,255.0
403,20.150000000000002,-2.257573956904811,2.114040724761703e-53,-12.00000000000003,-0.5508287248817734,-1.77486452850036e-52,0.0,-0.04817226673061725,-4.995624721232268e-51,0.0,0.0,70.0,255.0,255.0,255.0
404,20.200000000000003,-2.285175508600229,5.54068166756127e-54,-12.00000000000003,-0.5532196361647479,-4.518823852342213e-52,0.0,-0.04764833743213792,-4.8894659645455037e-51,0.0,0.0,70.0,255.0,255.0,255.0
405,20.25,-2.312895920521286,-2.4047831275805105e-53,-12.00000000000003,-0.5555935586249872,-6.664330493045863e-52,0.0,-0.04754397726736137,-1.7680881661828124e-51,0.0,0.0,70.0,255.0,255.0,255.0
406,20.3,-2.340734864462728,-6.110262326289736e-53,-12.00000000000003,-0.557974033891484,-6.2869120185250254e-52,0.0,-0.04789214426565991,4.8848854252551917e-51,0.0,0.0,70.0,255.0,255.0,255.0
407,20.35,-2.3686933239104344,-8.691695146105536e-53,-12.00000000000003,-0.5603827730515532,-1.7794450677906712e-52,0.0,-0.04856514986633087,1.2910796615440145e-50,0.0,0.0,70.0,255.0,255.0,255.0
408,20.400000000000002,-2.3967731417678833,-7.889707394080407e-53,-12.00000000000003,-0.5628305488781171,6.6238845969151204e-52,0.0,-0.04932683444782704,1.8643925275185926e-50,0.0,0.0,70.0,255.0,255.0,255.0
409,20.450000000000003,-2.424976378798246,-2.0678105491904152e-53,-12.00000000000003,-0.5653154564963359,1.6864480207395257e-51,0.0,-0.049921908086236755,1.8247735401562585e-50,0.0,0.0,70.0,255.0,255.0,255.0
410,20.5,-2.453304687417517,8.97477281331485e-53,-12.00000000000003,-0.5678227396867408,2.4871619998477706e-51,0.0,-0.050100720708190494,6.59859486845554e-51,0.0,0.0,70.0,255.0,255.0,255.0
411,20.55,-2.48175865276692,2.2803809449287292e-52,-12.00000000000003,-0.5703255285671549,2.3463075075850798e-51,0.0,-0.04973772601397641,-1.8230640596205062e-50,0.0,0.0,70.0,255.0,255.0,255.0
412,20.6,-2.5103372402742323,3.243784788916565e-52,-12.00000000000003,-0.5727965122881384,6.6409794022726434e-52,0.0,-0.04893565024599589,-4.818374893501091e-50,0.0,0.0,70.0,255.0,255.0,255.0
413,20.650000000000002,-2.539038303995734,2.9444788851559936e-52,-12.00000000000003,-0.5752190935917545,-2.472067385916012e-51,0.0,-0.04791228358973498,-6.958007637951147e-50,0.0,0.0,70.0,255.0,255.0,255.0
414,20.700000000000003,-2.567859149633408,7.717174030005528e-53,-12.00000000000003,-0.5775877406471119,-6.293909697723883e-51,0.0,-0.046897316936656,-6.810147564170482e-50,0.0,0.0,70.0,255.0,255.0,255.0
415,20.75,-2.5967970780604452,-3.34943081256789e-52,-12.00000000000003,-0.5799088252854201,-9.282214950086494e-51,0.0,-0.046133139899939835,-2.462629130763936e-50,0.0,0.0,70.0,255.0,255.0,255.0
416,20.8,-2.62585003216195,-8.510497547085943e-52,-12.00000000000003,-0.5822010546371059,-8.756538828487819e-51,0.0,-0.04574921275053434,6.803767695956504e-50,0.0,0.0,70.0,255.0,255.0,255.0
417,20.85,-2.655017183524156,-1.210596964105571e-51,-12.00000000000003,-0.5844837465604735,-2.47844725412999e-51,0.0,-0.04564768038504141,1.798241991246036e-49,0.0,0.0,70.0,255.0,255.0,255.0
418,20.900000000000002,-2.684298406817997,-1.0988944801215933e-51,-12.00000000000003,-0.5867658226756101,9.225881083972541e-51,0.0,-0.04563027827959587,2.596763802428599e-49,0.0,0.0,70.0,255.0,255.0,255.0
419,20.950000000000003,-2.713693765791717,-2.880088557083169e-52,-12.00000000000003,-0.5890467743884331,2.3489190770156004e-50,0.0,-0.045507938386357694,2.541581671652567e-49,0.0,0.0,70.0,255.0,255.0,255.0
420,21.0,-2.7432030842568405,1.2500245968940072e-51,-12.00000000000003,-0.5913166165142458,3.464169780049821e-50,0.0,-0.04507879428374828,9.190657036210191e-50,0.0,0.0,70.0,255.0,255.0,255.0
421,21.05,-2.7728254274431414,3.176160924341504e-51,-12.00000000000003,-0.5935546538168079,3.2679847806366195e-50,0.0,-0.044245562844080766,-2.5392006724205514e-49,0.0,0.0,70.0,255.0,255.0,255.0
422,21.1,-2.8025585496385212,4.518009377530627e-51,-12.00000000000003,-0.5957411727986539,9.249691076292694e-51,0.0,-0.0431563321766415,-6.711130475634035e-49,0.0,0.0,70.0,255.0,255.0,255.0
423,21.150000000000002,-2.832399544723007,4.1011300319707737e-51,-12.00000000000003,-0.5978702870344721,-3.4431456949974154e-50,0.0,-0.04208389932927048,-9.691254445919282e-49,0.0,0.0,70.0,255.0,255.0,255.0
424,21.200000000000003,-2.8623455783419685,1.074863682533211e-51,-12.00000000000003,-0.599949562731581,-8.766285338290013e-50,0.0,-0.04129078965804389,-9.48531193019322e-49,0.0,0.0,70.0,255.0,255.0,255.0
425,21.25,-2.892394500996165,-4.6651553063192413e-51,-12.00000000000003,-0.6019993660002765,-1.2928457625190636e-49,0.0,-0.04103960837280596,-3.4299999014076816e-49,0.0,0.0,70.0,255.0,255.0,255.0
426,21.3,-2.922545514941996,-1.1853593942657425e-50,-12.00000000000003,-0.6040535235688616,-1.2196285239697695e-49,0.0,-0.04144942165398291,9.476425920086555e-49,0.0,0.0,70.0,255.0,255.0,255.0
427,21.35,-2.952799853353051,-1.6861440546016939e-50,-12.00000000000003,-0.6061443081656748,-3.4520317051040784e-50,0.0,-0.042320743821999685,2.50462799112901e-48,0.0,0.0,70.0,255.0,255.0,255.0
428,21.400000000000002,-2.9831599457585636,-1.5305625647761504e-50,-12.00000000000003,-0.6082855979510615,1.2849994671592404e-49,0.0,-0.043278693167758675,3.6168253981248524e-48,0.0,0.0,70.0,255.0,255.0,255.0
429,21.450000000000003,-3.013628413148157,-4.011445874424533e-51,-12.00000000000003,-0.6104721774824506,3.2716222276144448e-49,0.0,-0.043943355196374156,3.5399666049120315e-48,0.0,0.0,70.0,255.0,255.0,255.0
430,21.5,-3.0442071635068086,1.7410596628382947e-50,-12.00000000000003,-0.6126799334706989,4.824966072071272e-49,0.0,-0.043934800197220625,1.2800933902009729e-48,0.0,0.0,70.0,255.0,255.0,255.0
431,21.55,-3.074896406495227,4.423821484628818e-50,-12.00000000000003,-0.6148656575021727,4.551715617815418e-49,0.0,-0.04306966429274972,-3.536650300792567e-48,0.0,0.0,70.0,255.0,255.0,255.0
432,21.6,-3.105693729257026,6.292775280653713e-50,-12.00000000000003,-0.6169868998999739,1.2883157712787041e-49,0.0,-0.04157057598499492,-9.34739891695264e-48,0.0,0.0,70.0,255.0,255.0,255.0
433,21.650000000000002,-3.1365950964852245,5.712137255907523e-50,-12.00000000000003,-0.6190227151006722,-4.7956832991372225e-49,0.0,-0.039872283710806755,-1.3498176147907485e-47,0.0,0.0,70.0,255.0,255.0,255.0
434,21.700000000000003,-3.167596000767093,1.4970919815164903e-50,-12.00000000000003,-0.6209741282710546,-1.220986037662878e-48,0.0,-0.038415136876190914,-1.32113352266288e-47,0.0,0.0,70.0,255.0,255.0,255.0
435,21.75,-3.19869250931233,-6.497723120721258e-50,-12.00000000000003,-0.6228642287882913,-1.8007018525766022e-48,0.0,-0.037641144217559486,-4.77737357066311e-48,0.0,0.0,70.0,255.0,255.0,255.0
436,21.8,-3.2298824236459223,-1.650992654424953e-49,-12.00000000000003,-0.6247382426928105,-1.698723394729189e-48,0.0,-0.03777178131443293,1.319895861116161e-47,0.0,0.0,70.0,255.0,255.0,255.0
437,21.85,-3.261166333581611,-2.348495706801315e-49,-12.00000000000003,-0.6266414069197346,-4.8080599146044136e-49,0.0,-0.038586136387497305,3.4884967676681516e-47,0.0,0.0,70.0,255.0,255.0,255.0
438,21.900000000000002,-3.2925465643378957,-2.1317986458853945e-49,-12.00000000000003,-0.6285968563315603,1.789773372938963e-48,0.0,-0.03964298784042697,5.037587919350507e-47,0.0,0.0,70.0,255.0,255.0,255.0
439,21.950000000000003,-3.324026019214767,-5.587223338623518e-50,-12.00000000000003,-0.6306057057037773,4.5567819278900667e-48,0.0,-0.040502950446175134,4.930537430160317e-47,0.0,0.0,70.0,255.0,255.0,255.0
440,22.0,-3.3556071349082734,2.4249832820046724e-49,-12.00000000000003,-0.6326471513761778,6.72031080309928e-48,0.0,-0.0407326975239819,1.78294008924515e-47,0.0,0.0,70.0,255.0,255.0,255.0
441,22.05,-3.387290734352385,6.1615884692369295e-49,-12.00000000000003,-0.6346789754561755,6.339722017135217e-48,0.0,-0.04011006359561087,-4.925918414385387e-47,0.0,0.0,70.0,255.0,255.0,255.0
442,22.1,-3.419075032453891,8.76470529913989e-49,-12.00000000000003,-0.6366581577357389,1.794392388713893e-48,0.0,-0.038815694316118865,-1.3019247178977349e-46,0.0,0.0,70.0,255.0,255.0,255.0
443,22.150000000000002,-3.4509565501259587,7.955980857950823e-49,-12.00000000000003,-0.6385605448877874,-6.679525161842133e-48,0.0,-0.03722494907760776,-1.8800534062611284e-46,0.0,0.0,70.0,255.0,255.0,255.0
444,22.200000000000003,-3.4829310869426697,2.0851801372977564e-49,-12.00000000000003,-0.6403806526434996,-1.700614167389739e-47,0.0,-0.03571292147905858,-1.8401016197978385e-46,0.0,0.0,70.0,255.0,255.0,255.0
445,22.25,-3.5149946153903087,-9.050160815946567e-49,-12.00000000000003,-0.6421318370356932,-2.508054135982052e-47,0.0,-0.03464801906578607,-6.654022999914286e-47,0.0,0.0,70.0,255.0,255.0,255.0
446,22.3,-3.547144270646239,-2.2995361222522765e-48,-12.00000000000003,-0.6438454545500782,-2.3660164673811676e-47,0.0,-0.03422731162223691,1.838377779642538e-46,0.0,0.0,70.0,255.0,255.0,255.0
447,22.35,-3.5793791608453165,-3.2710325489758243e-48,-12.00000000000003,-0.6455545681979169,-6.696763563395139e-48,0.0,-0.03434204205920999,4.858849194824124e-46,0.0,0.0,70.0,255.0,255.0,255.0
448,22.400000000000002,-3.6116997274660307,-2.9692124785917904e-48,-12.00000000000003,-0.6472796587559992,2.492832727442957e-47,0.0,-0.03474709929913722,7.016454833109464e-46,0.0,0.0,70.0,255.0,255.0,255.0
449,22.450000000000003,-3.6441071267209164,-7.781998215328671e-49,-12.00000000000003,-0.6490292781278306,6.346778476769951e-47,0.0,-0.035198277390735555,6.867352736175321e-46,0.0,0.0,70.0,255.0,255.0,255.0
450,22.5,-3.676602655278814,3.3775659981781596e-48,-12.00000000000003,-0.6507994864950728,9.36018546361828e-47,0.0,-0.03544725418476169,2.4833151910411974e-46,0.0,0.0,70.0,255.0,255.0,255.0
451,22.55,-3.7091870753704237,8.581985642085413e-48,-12.00000000000003,-0.6525740035463068,8.830093667811148e-47,0.0,-0.035355142129578354,-6.860919277131618e-46,0.0,0.0,70.0,255.0,255.0,255.0
452,22.6,-3.7418600556334445,1.220765966598931e-47,-12.00000000000003,-0.6543350007080306,2.499266186486661e-47,0.0,-0.03498070621152927,-1.8133472061398757e-45,0.0,0.0,70.0,255.0,255.0,255.0
453,22.650000000000002,-3.7746205754412268,1.1081251828572074e-47,-12.00000000000003,-0.6560720741674597,-9.303378393587613e-47,0.0,-0.0344604066396581,-2.6185765926176707e-45,0.0,0.0,70.0,255.0,255.0,255.0
454,22.700000000000003,-3.8074672630501905,2.904281272401695e-48,-12.00000000000003,-0.6577810413719964,-2.3686499739690047e-46,0.0,-0.03392156802610735,-2.562930932490345e-45,0.0,0.0,70.0,255.0,255.0,255.0
455,22.75,-3.8403986795784264,-1.2605247911117977e-47,-12.00000000000003,-0.6594642309700705,-3.493268771849106e-46,0.0,-0.03350291757473478,-9.267858464173383e-46,0.0,0.0,70.0,255.0,255.0,255.0
456,22.8,-3.8734136861471975,-3.202840644608937e-47,-12.00000000000003,-0.6611313331294699,-3.295435820386343e-46,0.0,-0.03327818046501285,2.56052993288839e-45,0.0,0.0,70.0,255.0,255.0,255.0
457,22.85,-3.9065118128913734,-4.555960611498141e-47,-12.00000000000003,-0.6627920490165717,-9.32738838960716e-47,0.0,-0.033174200693997236,6.767503905077094e-45,0.0,0.0,70.0,255.0,255.0,255.0
458,22.900000000000002,-3.9396928910488547,-4.135579483569653e-47,-12.00000000000003,-0.6644487531988696,3.4720680846907503e-46,0.0,-0.03305304570448975,9.772660887159745e-45,0.0,0.0,70.0,255.0,255.0,255.0
459,22.950000000000003,-3.9729566882112604,-1.0838925268073902e-47,-12.00000000000003,-0.6660973535870207,8.839922048199029e-46,0.0,-0.03278836425804066,9.564988456343848e-45,0.0,0.0,70.0,255.0,255.0,255.0
460,23.0,-4.006302626407557,4.704342564629377e-47,-12.00000000000003,-0.6677275896246737,1.3037056541034599e-45,0.0,-0.032245131459740506,3.458811866565223e-45,0.0,0.0,70.0,255.0,255.0,255.0
461,23.05,-4.039729447173728,1.1953164014227209e-46,-12.00000000000003,-0.6693218667329948,1.2298733914764252e-45,0.0,-0.03136504976293253,-9.556027803840405e-45,0.0,0.0,70.0,255.0,255.0,255.0
462,23.1,-4.073234813080856,1.700307647939363e-46,-12.00000000000003,-0.670864094600967,3.4810287371941943e-46,0.0,-0.03028426257474237,-2.5256668414168486e-44,0.0,0.0,70.0,255.0,255.0,255.0
463,23.150000000000002,-4.106815856633824,1.5434192751421403e-46,-12.00000000000003,-0.672350292990469,-1.2957934499404237e-45,0.0,-0.029246478142130883,-3.6472066956021297e-44,0.0,0.0,70.0,255.0,255.0,255.0
464,23.200000000000003,-4.140469842379903,4.0451419799893933e-47,-12.00000000000003,-0.67378874241518,-3.2991038218827105e-45,0.0,-0.02849103554751764,-3.569702289288506e-44,0.0,0.0,70.0,255.0,255.0,255.0
465,23.25,-4.174194730875342,-1.7556845467405702e-46,-12.00000000000003,-0.6751993965452208,-4.8654957392289294e-45,0.0,-0.02825650996527429,-1.290846161984358e-44,0.0,0.0,70.0,255.0,255.0,255.0
466,23.3,-4.207989782034425,-4.46098154122999e-46,-12.00000000000003,-0.6766143934117075,-4.5899499838670685e-45,0.0,-0.028649219551013516,3.566358128247324e-44,0.0,0.0,70.0,255.0,255.0,255.0
467,23.35,-4.241856170216513,-6.345634530607639e-46,-12.00000000000003,-0.6780643185003221,-1.2991376109816051e-45,0.0,-0.029482501921318516,9.425916975159688e-44,0.0,0.0,70.0,255.0,255.0,255.0
468,23.400000000000002,-4.275796213884457,-5.760119152211595e-46,-12.00000000000003,-0.6795626436038393,4.83596699129262e-45,0.0,-0.030405610491435198,1.3611560693692542e-43,0.0,0.0,70.0,255.0,255.0,255.0
469,23.450000000000003,-4.309812434576897,-1.509667539315019e-46,-12.00000000000003,-0.6811048795494656,1.231242308271094e-44,0.0,-0.031061945766186483,1.3322310311519635e-43,0.0,0.0,70.0,255.0,255.0,255.0
470,23.5,-4.343906701839404,6.552303930499345e-46,-12.00000000000003,-0.682668838180458,1.8158277302812256e-44,0.0,-0.03110085665101181,4.817503461280906e-44,0.0,0.0,70.0,255.0,255.0,255.0
471,23.55,-4.378079318394943,1.6648609763497237e-45,-12.00000000000003,-0.6842149652145668,1.7129926543991845e-44,0.0,-0.03035098578632045,-1.330982973260525e-43,0.0,0.0,70.0,255.0,255.0,255.0
472,23.6,-4.412328198360861,2.3682230474491192e-45,-12.00000000000003,-0.68570393675909,4.848447570207006e-45,0.0,-0.028995613190296865,-3.51780010592219e-43,0.0,0.0,70.0,255.0,255.0,255.0
473,23.650000000000002,-4.446649712070852,2.1497057333704243e-45,-12.00000000000003,-0.6871145265335965,-1.8048074515230055e-44,0.0,-0.027402035602719366,-5.079903607916805e-43,0.0,0.0,70.0,255.0,255.0,255.0
474,23.700000000000003,-4.48103965101422,5.634155959261134e-46,-12.00000000000003,-0.688444140319362,-4.595058850896104e-44,0.0,-0.025947241993673487,-4.9719538956790026e-43,0.0,0.0,70.0,255.0,255.0,255.0
475,23.75,-4.515494126102788,-2.445353117525681e-45,-12.00000000000003,-0.6897092507329639,-6.776761347202008e-44,0.0,-0.025012044782801723,-1.7979167683139276e-43,0.0,0.0,70.0,255.0,255.0,255.0
476,23.8,-4.550010576087517,-6.213345751275895e-45,-12.00000000000003,-0.6909453447976421,-6.392975619210032e-44,0.0,-0.024792897910153044,4.967296080217367e-43,0.0,0.0,70.0,255.0,255.0,255.0
477,23.85,-4.584588660582552,-8.838328736735713e-45,-12.00000000000003,-0.6921885405239792,-1.8094652669846406e-44,0.0,-0.025126001028041856,1.3128608726172795e-42,0.0,0.0,70.0,255.0,255.0,255.0
478,23.900000000000002,-4.619229430139915,-8.022811018260536e-45,-12.00000000000003,-0.6934579449004463,6.735633106962763e-44,0.0,-0.025676130547314102,1.895845836229796e-42,0.0,0.0,70.0,255.0,255.0,255.0
479,23.950000000000003,-4.653934455072597,-2.1026956297729505e-45,-12.00000000000003,-0.6947561535787106,1.7148993095313322e-43,0.0,-0.026108713299333175,1.8555584551564043e-42,0.0,0.0,70.0,255.0,255.0,255.0
480,24.0,-4.688705045497786,9.126182077052787e-45,-12.00000000000003,-0.6960688162303796,2.529121765852681e-43,0.0,-0.026075020161098195,6.7099167271276215e-43,0.0,0.0,70.0,255.0,255.0,255.0
481,24.05,-4.723541336695635,2.318852202875386e-44,-12.00000000000003,-0.6973636555948204,2.3858909822440944e-43,0.0,-0.02539807525376858,-1.853820134760895e-42,0.0,0.0,70.0,255.0,255.0,255.0
482,24.1,-4.758441411057268,3.298509189949373e-44,-12.00000000000003,-0.6986086237557565,6.75301631091786e-44,0.0,-0.0242667230242688,-4.899663479876898e-42,0.0,0.0,70.0,255.0,255.0,255.0
483,24.150000000000002,-4.793402199071211,2.994153833967172e-44,-12.00000000000003,-0.6997903278972473,-2.5137724976328036e-43,0.0,-0.023046262720516353,-7.075392984127504e-42,0.0,0.0,70.0,255.0,255.0,255.0
484,24.200000000000003,-4.828420443846992,7.847366923165694e-45,-12.00000000000003,-0.7009132500278081,-6.4000913530357196e-43,0.0,-0.022091564482984438,-6.925038431057719e-42,0.0,0.0,70.0,255.0,255.0,255.0
485,24.25,-4.863493524073991,-3.405937519068548e-44,-12.00000000000003,-0.7019994843455457,-9.438810928690523e-43,0.0,-0.021767781332293623,-2.5041750140196553e-42,0.0,0.0,70.0,255.0,255.0,255.0
486,24.3,-4.898620392281547,-8.654074236373954e-44,-12.00000000000003,-0.7030900281610375,-8.904266367055375e-43,0.0,-0.022248460748475196,6.918550931021841e-42,0.0,0.0,70.0,255.0,255.0,255.0
487,24.35,-4.933802526890095,-1.2310203886123923e-43,-12.00000000000003,-0.7042243304203932,-2.5202599976686815e-43,0.0,-0.023279927388575317,1.8285793046890312e-41,0.0,0.0,70.0,255.0,255.0,255.0
488,24.400000000000002,-4.969042825323586,-1.1174334234042636e-43,-12.00000000000003,-0.705418020899895,9.381526679834937e-43,0.0,-0.024385158896755854,2.640572610028022e-41,0.0,0.0,70.0,255.0,255.0,255.0
489,24.450000000000003,-5.004344328980085,-2.9286772062889844e-44,-12.00000000000003,-0.7066628463100688,2.388546610261154e-42,0.0,-0.025092394735715118,2.5844595269074476e-41,0.0,0.0,70.0,255.0,255.0,255.0
490,24.5,-5.039709109954593,1.2711131868568908e-43,-12.00000000000003,-0.7079272603734665,3.522612194890941e-42,0.0,-0.024929938425533038,9.345708383365852e-42,0.0,0.0,70.0,255.0,255.0,255.0
491,24.55,-5.075137055017431,3.229744474262043e-43,-12.00000000000003,-0.7091558401526221,3.323117448597739e-42,0.0,-0.023673909258192793,-2.5820383589326483e-41,0.0,0.0,70.0,255.0,255.0,255.0
492,24.6,-5.110624693969855,4.594230635454631e-43,-12.00000000000003,-0.7102946512992858,9.405738359582928e-43,0.0,-0.021625222433474534,-6.824350870768433e-41,0.0,0.0,70.0,255.0,255.0,255.0
493,24.650000000000002,-5.14616652014736,4.170318310220336e-43,-12.00000000000003,-0.7113183623959696,-3.5012334221706936e-42,0.0,-0.019363125001969905,-9.854751141699336e-41,0.0,0.0,70.0,255.0,255.0,255.0
494,24.700000000000003,-5.181756530209452,1.092997213283937e-43,-12.00000000000003,-0.7122309637994828,-8.914177305741045e-42,0.0,-0.017470977786260278,-9.645334264524018e-41,0.0,0.0,70.0,255.0,255.0,255.0
495,24.75,-5.217389616527308,-4.7438589955207084e-43,-12.00000000000003,-0.7130654601745956,-1.3146567686694712e-41,0.0,-0.016524399698347736,-3.4878658519443705e-41,0.0,0.0,70.0,255.0,255.0,255.0
496,24.8,-5.253063076226912,-1.2053570473410776e-42,-12.00000000000003,-0.7138834037693176,-1.2402043157685416e-41,0.0,-0.016809561892028313,9.636298342628408e-41,0.0,0.0,70.0,255.0,255.0,255.0
497,24.85,-5.28877795690424,-1.7145902153206126e-42,-12.00000000000003,-0.7147464163637984,-3.5102693440663036e-42,0.0,-0.018043891501395848,2.546882417838469e-40,0.0,0.0,70.0,255.0,255.0,255.0
498,24.900000000000002,-5.324537717863292,-1.556383981747708e-42,-12.00000000000003,-0.7156877929194572,1.3066781020699278e-41,0.0,-0.019656793309952292,3.677843195676932e-40,0.0,0.0,70.0,255.0,255.0,255.0
499,24.950000000000003,-5.360346736196186,-4.079121132506847e-43,-12.00000000000003,-0.7167120956947937,3.326816261270302e-41,0.0,-0.021071060087063387,3.5996877531188638e-40,0.0,0.0,70.0,255.0,255.0,255.0
500,25.0,-5.396208927432771,1.7704322795225943e-42,-12.00000000000003,-0.7177948989281635,4.906365855188792e-41,0.0,-0.021716518725245493,1.301689256944094e-40,0.0,0.0,70.0,255.0,255.0,255.0
501,25.05,-5.432126226089002,4.498453741938107e-42,-12.00000000000003,-0.7188837475673182,4.628505518214396e-41,0.0,-0.02129520914087024,-3.5963155011581007e-40,0.0,0.0,70.0,255.0,255.0,255.0
502,25.1,-5.468097302189503,6.39893779773699e-42,-12.00000000000003,-0.7199244198422505,1.3100503540306907e-41,0.0,-0.02001366377566427,-9.505094584277041e-40,0.0,0.0,70.0,255.0,255.0,255.0
503,25.150000000000002,-5.504118668073227,5.808504095968798e-42,-12.00000000000003,-0.7208851139448846,-4.876589066062645e-41,0.0,-0.018314410383712953,-1.3725897668537794e-39,0.0,0.0,70.0,255.0,255.0,255.0
504,25.200000000000003,-5.540185813583991,1.5223487316743448e-42,-12.00000000000003,-0.7217558608806218,-1.2415847314507105e-40,0.0,-0.016638441538496807,-1.3434217586023044e-39,0.0,0.0,70.0,255.0,255.0,255.0
505,25.25,-5.576294254161289,-6.607343218538306e-42,-12.00000000000003,-0.7225489580987343,-1.831080665208569e-40,0.0,-0.01542146013147061,-4.857970442581928e-40,0.0,0.0,70.0,255.0,255.0,255.0
506,25.3,-5.612440709393865,-1.6788457920411348e-41,-12.00000000000003,-0.7232980068937689,-1.7273817757089033e-40,0.0,-0.014901722757176827,1.3421632170369552e-39,0.0,0.0,70.0,255.0,255.0,255.0
507,25.35,-5.648624054850666,-2.388116097562734e-41,-12.00000000000003,-0.724039130374452,-4.889174481716139e-41,0.0,-0.014971476706904241,3.5473495919269674e-39,0.0,0.0,70.0,255.0,255.0,255.0
508,25.400000000000002,-5.68484462243131,-2.1677632402127487e-41,-12.00000000000003,-0.7247951545644593,1.8199678162180643e-40,0.0,-0.015377220167422934,5.1225747478474245e-39,0.0,0.0,70.0,255.0,255.0,255.0
509,25.450000000000003,-5.721103570307112,-5.681482813446694e-42,-12.00000000000003,-0.7255768523911943,4.633657299675811e-40,0.0,-0.015874287977268864,5.013718259097333e-39,0.0,0.0,70.0,255.0,255.0,255.0
510,25.5,-5.7574023076704295,2.465894059463063e-41,-12.00000000000003,-0.7263825833621862,6.833686075315397e-40,0.0,-0.016221696691509635,1.8130192513383646e-39,0.0,0.0,70.0,255.0,255.0,255.0
511,25.55,-5.793741828643331,6.265537793970727e-41,-12.00000000000003,-0.7271990220603453,6.446676551014176e-40,0.0,-0.01627906533192558,-5.0090213180320115e-39,0.0,0.0,70.0,255.0,255.0,255.0
512,25.6,-5.830122209876464,8.912570610477239e-41,-12.00000000000003,-0.7280104898953788,1.8246647572833858e-40,0.0,-0.01606499816215745,-1.323888890928017e-38,0.0,0.0,70.0,255.0,255.0,255.0
513,25.650000000000002,-5.8665428776328685,8.090202551254113e-41,-12.00000000000003,-0.728805521876561,-6.792212358265996e-40,0.0,-0.01565046186104979,-1.9117709224535923e-38,0.0,0.0,70.0,255.0,255.0,255.0
514,25.700000000000003,-5.90300276206412,2.1203582522112424e-41,-12.00000000000003,-0.7295755360814837,-1.7293044467252538e-39,0.0,-0.015098718906525477,-1.871145127778703e-38,0.0,0.0,70.0,255.0,255.0,255.0
515,25.75,-5.939500431241017,-9.202841915998426e-41,-12.00000000000003,-0.7303153937672135,-2.5503663636053024e-39,0.0,-0.014483734452852559,-6.766279961095259e-39,0.0,0.0,70.0,255.0,255.0,255.0
516,25.8,-5.9760343014408415,-2.338330538384178e-40,-12.00000000000003,-0.731023909526769,-2.4059324428347797e-39,0.0,-0.013854276987412817,1.869392205509109e-38,0.0,0.0,70.0,255.0,255.0,255.0
517,25.85,-6.012602822193694,-3.3262166344346224e-40,-12.00000000000003,-0.7317008214659548,-6.809741580961931e-40,0.0,-0.01320936980659937,4.940820604519371e-38,0.0,0.0,70.0,255.0,255.0,255.0
518,25.900000000000002,-6.049204383587437,-3.0193046964803713e-40,-12.00000000000003,-0.7323448465074289,2.534888161684592e-39,0.0,-0.012541771549745562,7.134826215029624e-38,0.0,0.0,70.0,255.0,255.0,255.0
519,25.950000000000003,-6.085837306844437,-7.913284727500304e-41,-12.00000000000003,-0.7329549986209294,6.453852056933431e-39,0.0,-0.01185652404238624,6.983208685205073e-38,0.0,0.0,70.0,255.0,255.0,255.0
520,26.0,-6.12249988344953,3.4345473604530604e-40,-12.00000000000003,-0.7335304989116676,9.518096846889666e-39,0.0,-0.011139402792093023,2.525210059304267e-38,0.0,0.0,70.0,255.0,255.0,255.0
521,26.05,-6.1591903567356034,8.726768374139636e-40,-12.00000000000003,-0.7340689389001387,8.979062116237698e-39,0.0,-0.010390540004578952,-6.976666690233234e-38,0.0,0.0,70.0,255.0,255.0,255.0
522,26.1,-6.195906777339544,1.241360947669076e-39,-12.00000000000003,-0.7345695529121254,2.5414301566564308e-39,0.0,-0.009694818649119696,-1.8439393527149464e-37,0.0,0.0,70.0,255.0,255.0,255.0
523,26.150000000000002,-6.232647312026816,1.1268198530796067e-39,-12.00000000000003,-0.7350384207650507,-9.460331410911766e-39,0.0,-0.00918515590289104,-2.66275339376649e-37,0.0,0.0,70.0,255.0,255.0,255.0
524,26.200000000000003,-6.269410619416049,2.9532780657789945e-40,-12.00000000000003,-0.7354880685024145,-2.408610378100847e-38,0.0,-0.00898175835049031,-2.6061689613041598e-37,0.0,0.0,70.0,255.0,255.0,255.0
525,26.25,-6.306196118877057,-1.2817905250212408e-39,-12.00000000000003,-0.7359365966000997,-3.5522021023953365e-38,0.0,-0.009210589110431044,-9.42421224110754e-38,0.0,0.0,70.0,255.0,255.0,255.0
526,26.3,-6.343004279076059,-3.256874295817437e-39,-12.00000000000003,-0.7364091274134577,-3.351031602211601e-38,0.0,-0.009911674882090438,2.6037274555423824e-37,0.0,0.0,70.0,255.0,255.0,255.0
527,26.35,-6.379837031618403,-4.632822127232842e-39,-12.00000000000003,-0.7369277640883087,-9.484746468529542e-39,0.0,-0.01088874487411573,6.881675350407846e-37,0.0,0.0,70.0,255.0,255.0,255.0
528,26.400000000000002,-6.41669705548489,-4.205348942670391e-39,-12.00000000000003,-0.7374980019008692,3.5306437481962455e-38,0.0,-0.011797698080062702,9.937530953563e-37,0.0,0.0,70.0,255.0,255.0,255.0
529,26.450000000000003,-6.45358683180849,-1.1021783790365961e-39,-12.00000000000003,-0.738107533896315,8.989056306710045e-38,0.0,-0.012291407591735748,9.72635497669613e-37,0.0,0.0,70.0,255.0,255.0,255.0
530,26.5,-6.490507808874521,4.7837073640396546e-39,-12.00000000000003,-0.7387271426600428,1.3256998724892377e-37,0.0,-0.012034278061356929,3.517163890512586e-37,0.0,0.0,70.0,255.0,255.0,255.0
531,26.55,-6.527459546074494,1.2154820345855783e-38,-12.00000000000003,-0.7393109617024507,1.250622019722263e-37,0.0,-0.01087464857754128,-9.717243153146206e-37,0.0,0.0,70.0,255.0,255.0,255.0
532,26.6,-6.564438905044766,1.7289927561262287e-38,-12.00000000000003,-0.7398146075177969,3.539755571746171e-38,0.0,-0.009040924464631672,-2.5682762048916437e-36,0.0,0.0,70.0,255.0,255.0,255.0
533,26.650000000000002,-6.601441006826274,1.5694575917601954e-38,-12.00000000000003,-0.7402150541489139,-1.3176541851693806e-37,0.0,-0.006975846650192352,-3.708737042048551e-36,0.0,0.0,70.0,255.0,255.0,255.0
534,26.700000000000003,-6.638460410459658,4.11338570956848e-39,-12.00000000000003,-0.7405121921828162,-3.3547614848739337e-37,0.0,-0.005137646249142591,-3.6299250945480354e-36,0.0,0.0,70.0,255.0,255.0,255.0
