idx,t,px,py,pz,vx,vy,vz,ax,ay,az,yaw,mode,ledr,ledg,ledb
0,0.0,-1.3203355754166592e-47,-1.3203355754166592e-47,0.0025000000000000226,-1.5777268402178642e-31,-1.5777268402178642e-31,-0.05513774266502681,1.0518178934785741e-30,1.0518178934785741e-30,-0.21508171556648872,0.0,70.0,255.0,255.0,255.0
1,0.05,-7.888634201089335e-33,-7.888634201089335e-33,-0.0002568871332513179,-1.051817893478577e-31,-1.051817893478577e-31,-0.06589182844335124,1.44624960353304e-30,1.44624960353304e-30,-0.32223735890392197,0.0,70.0,255.0,255.0,255.0
2,0.1,-1.0518178934785784e-32,-1.0518178934785784e-32,-0.004089182844335102,-1.3147723668482418e-32,-1.3147723668482418e-32,-0.08736147855541901,1.5777268402178622e-30,1.5777268402178622e-30,-0.42862257334973297,0.0,70.0,255.0,255.0,255.0
3,0.15000000000000002,-9.203406567937577e-33,-9.203406567937577e-33,-0.008993034988793218,5.259089467392852e-32,5.259089467392852e-32,-0.10875408577832454,1.0518178934785857e-30,1.0518178934785857e-30,-0.42708171556652713,0.0,70.0,255.0,255.0,255.0
4,0.2,-5.259089467392931e-33,-5.259089467392931e-33,-0.014964591422167557,9.203406567937617e-32,9.203406567937617e-32,-0.13006965011207172,5.148758919125996e-31,5.148758919125996e-31,-0.4255488118158082,0.0,70.0,255.0,255.0,255.0
5,0.25,4.083984477020875e-47,4.083984477020875e-47,-0.02200000000000039,1.040784838651885e-31,1.040784838651885e-31,-0.15130896695990537,-8.550617490692751e-32,-8.550617490692751e-32,-0.4240616437519987,0.0,70.0,255.0,255.0,255.0
6,0.30000000000000004,5.1487589191259186e-33,5.1487589191259186e-33,-0.030095488118158095,8.348344818868342e-32,8.348344818868342e-32,-0.1724758144872716,-7.6618436296518256e-31,-7.6618436296518256e-31,-0.4226323633693671,0.0,70.0,255.0,255.0,255.0
7,0.35000000000000003,8.348344818868383e-33,8.348344818868383e-33,-0.03924758144872755,2.7460047568670243e-32,2.7460047568670243e-32,-0.19357220329684208,-1.3834224857699011e-30,-1.3834224857699011e-30,-0.42115734729978926,0.0,70.0,255.0,255.0,255.0
8,0.4,7.894763675992943e-33,7.894763675992943e-33,-0.0494527084478423,-5.485880038830668e-32,-5.485880038830668e-32,-0.21459154921725052,-1.7076717081767425e-30,-1.7076717081767425e-30,-0.41947110747771854,0.0,70.0,255.0,255.0,255.0
9,0.45,2.8624647800377148e-33,2.8624647800377148e-33,-0.0607067363704526,-1.4330712324900403e-31,-1.4330712324900403e-31,-0.23551931404461393,-1.5109155637672735e-30,-1.5109155637672735e-30,-0.4174361137113078,0.0,70.0,255.0,255.0,255.0
10,0.5,-6.435948648907462e-33,-6.435948648907462e-33,-0.0730046398523037,-2.0595035676503405e-31,-2.0595035676503405e-31,-0.2563351605883813,-4.73195462567251e-31,-4.73195462567251e-31,-0.4149492515050532,0.0,70.0,255.0,255.0,255.0
11,0.55,-1.773257089646569e-32,-1.773257089646569e-32,-0.08634025242929073,-1.9062666950572913e-31,-1.9062666950572913e-31,-0.27701423919511925,1.5096896687865798e-30,1.5096896687865798e-30,-0.4119764250817398,0.0,70.0,255.0,255.0,255.0
12,0.6000000000000001,-2.5498615599480376e-32,-2.5498615599480376e-32,-0.10070606377181562,-5.498138988637606e-32,-5.498138988637606e-32,-0.2975328030965553,3.826018234902831e-30,3.826018234902831e-30,-0.40860880452565806,0.0,70.0,255.0,255.0,255.0
13,0.65,-2.3230709885103297e-32,-2.3230709885103297e-32,-0.11609353273894626,1.9197515398455403e-31,1.9197515398455403e-31,-0.31787511964768506,5.447264346937071e-30,5.447264346937071e-30,-0.4050291877851958,0.0,70.0,255.0,255.0,255.0
14,0.7000000000000001,-6.301100201024973e-33,-6.301100201024973e-33,-0.13249357573658413,4.897450448073311e-31,4.897450448073311e-31,-0.33803572187507486,5.28851094693064e-30,5.28851094693064e-30,-0.4014580430697384,0.0,70.0,255.0,255.0,255.0
15,0.75,2.5743794595629815e-32,2.5743794595629815e-32,-0.14989710492645375,7.208262486776181e-31,7.208262486776181e-31,-0.3580209239546589,1.8927818502690197e-30,1.8927818502690197e-30,-0.39813511519190825,0.0,70.0,255.0,255.0,255.0
16,0.8,6.578152466673684e-32,6.578152466673684e-32,-0.16829566813205002,6.790232298342331e-31,6.790232298342331e-31,-0.3778492333942657,-5.283607367007841e-30,-5.283607367007841e-30,-0.3951884917347659,0.0,70.0,255.0,255.0,255.0
17,0.8500000000000001,9.364611757905313e-32,9.364611757905313e-32,-0.18768202826588032,1.9246551197683392e-31,1.9246551197683392e-31,-0.3975397731281355,-1.3920650453841428e-29,-1.3920650453841428e-29,-0.3925219334320884,0.0,70.0,255.0,255.0,255.0
18,0.9,8.502807586442023e-32,8.502807586442023e-32,-0.20804964544486357,-7.130418155499099e-31,-7.130418155499099e-31,-0.4171014267374745,-2.008138567957154e-29,-2.008138567957154e-29,-0.3899401600295366,0.0,70.0,255.0,255.0,255.0
19,0.9500000000000001,2.2341936024062137e-32,2.2341936024062137e-32,-0.22939217093962777,-1.81567305598032e-30,-1.81567305598032e-30,-0.43653378913108914,-1.9643128223955285e-29,-1.9643128223955285e-29,-0.38726374198176927,0.0,70.0,255.0,255.0,255.0
20,1.0,-9.653922973361178e-32,-9.653922973361178e-32,-0.2517030243579725,-2.6773546379454384e-30,-2.6773546379454384e-30,-0.45582780093565145,-7.097931938508831e-30,-7.097931938508831e-30,-0.3843264182634337,0.0,70.0,255.0,255.0,255.0
21,1.05,-2.453935277704817e-31,-2.453935277704817e-31,-0.2749749510331929,-2.5254662498312032e-30,-2.5254662498312032e-30,-0.4749664309574325,1.9624739799244798e-29,1.9624739799244798e-29,-0.38104266159224576,0.0,70.0,255.0,255.0,255.0
22,1.1,-3.490858547167321e-31,-3.490858547167321e-31,-0.29919966745371573,-7.148806580209584e-31,-7.148806580209584e-31,-0.493932067094876,5.18565835804629e-29,5.18565835804629e-29,-0.37746793727047034,0.0,70.0,255.0,255.0,255.0
23,1.1500000000000001,-3.1688159357257753e-31,-3.1688159357257753e-31,-0.3243681577426805,2.6601921082150866e-30,2.6601921082150866e-30,-0.5127132246844796,7.487827837134906e-29,7.487827837134906e-29,-0.3737265357330488,0.0,70.0,255.0,255.0,255.0
24,1.2000000000000002,-8.306664389522343e-32,-8.306664389522343e-32,-0.3504709899221637,6.772947179113948e-30,6.772947179113948e-30,-0.5313047206681809,7.328400194889045e-29,7.328400194889045e-29,-0.36994647618270315,0.0,70.0,255.0,255.0,255.0
25,1.25,3.604131243388173e-31,3.604131243388173e-31,-0.3774986298094986,9.988592303104132e-30,9.988592303104132e-30,-0.5497078723027499,2.64989459037663e-29,2.64989459037663e-29,-0.36624723040238893,0.0,70.0,255.0,255.0,255.0
26,1.3,9.157925864151898e-31,9.157925864151898e-31,-0.4054417771524387,9.422841769490578e-30,9.422841769490578e-30,-0.5679294437084198,-7.321535182997126e-29,-7.321535182997126e-29,-0.36270034907571747,0.0,70.0,255.0,255.0,255.0
27,1.35,1.3026973012878752e-30,1.3026973012878752e-30,-0.4342915741803406,2.667057120107005e-30,2.667057120107005e-30,-0.5859779072103216,-1.9350568386801008e-28,-1.9350568386801008e-28,-0.3593226811223482,0.0,70.0,255.0,255.0,255.0
28,1.4000000000000001,1.1824982984258903e-30,1.1824982984258903e-30,-0.46403956787347084,-9.92772661731043e-30,-9.92772661731043e-30,-0.6038617118206546,-2.7943172780582487e-28,-2.7943172780582487e-28,-0.35611817256273604,0.0,70.0,255.0,255.0,255.0
29,1.4500000000000002,3.09924639556832e-31,3.09924639556832e-31,-0.49467774536240605,-2.527611566047548e-29,-2.527611566047548e-29,-0.6215897244665952,-2.734928795716067e-28,-2.734928795716067e-28,-0.3530898404669913,0.0,70.0,255.0,255.0,255.0
30,1.5,-1.3451132676216577e-30,-1.3451132676216577e-30,-0.5261985403201304,-3.72770145744711e-29,-3.72770145744711e-29,-0.6391706958673538,-9.889785167655634e-29,-9.889785167655634e-29,-0.3502406508030631,0.0,70.0,255.0,255.0,255.0
31,1.55,-3.417776817890278e-30,-3.417776817890278e-30,-0.5585948149491414,-3.5165900828131114e-29,-3.5165900828131114e-29,-0.6566137895469015,2.732366675206405e-28,2.732366675206405e-28,-0.34755696774583233,0.0,70.0,255.0,255.0,255.0
32,1.6,-4.861703350434769e-30,-4.861703350434769e-30,-0.5918599192748205,-9.953347822407048e-30,-9.953347822407048e-30,-0.673926392641937,7.221661518915775e-28,7.221661518915775e-28,-0.34496049907923876,0.0,70.0,255.0,255.0,255.0
33,1.6500000000000001,-4.413111600130983e-30,-4.413111600130983e-30,-0.6259874542133351,3.7050714361026637e-29,3.7050714361026637e-29,-0.6911098394548254,1.04284863285195e-27,1.04284863285195e-27,-0.3423199348552175,0.0,70.0,255.0,255.0,255.0
34,1.7000000000000002,-1.1566319143321051e-30,-1.1566319143321051e-30,-0.660970903220303,9.433151546278796e-29,9.433151546278796e-29,-0.7081583861274587,1.0206875163375376e-27,1.0206875163375376e-27,-0.33949518759037733,0.0,70.0,255.0,255.0,255.0
35,1.75,5.0200399461478136e-30,5.0200399461478136e-30,-0.696803292826081,1.391194659947804e-28,1.391194659947804e-28,-0.7250593582138631,3.690924608024591e-28,3.690924608024591e-28,-0.3363461570613513,0.0,70.0,255.0,255.0,255.0
36,1.8,1.2755314685145936e-29,1.2755314685145936e-29,-0.7334768390416894,1.3124076154303387e-28,1.3124076154303387e-28,-0.7417930018335939,-1.0197313182525946e-27,-1.0197313182525946e-27,-0.3328112671204364,0.0,70.0,255.0,255.0,255.0
37,1.85,1.81441161004512e-29,1.81441161004512e-29,-0.7709825930094404,3.714633416952094e-29,3.714633416952094e-29,-0.7583404849259068,-2.6951589236983024e-27,-2.6951589236983024e-27,-0.32899979808515,0.0,70.0,255.0,255.0,255.0
38,1.9000000000000001,1.646994810209803e-29,1.646994810209803e-29,-0.80931088753428,-1.382751308267964e-28,-1.382751308267964e-28,-0.7746929816421089,-3.891962803601975e-27,-3.891962803601975e-27,-0.32511845165283937,0.0,70.0,255.0,255.0,255.0
39,1.9500000000000002,4.316603017771558e-30,4.316603017771558e-30,-0.8484518911736513,-3.520499461906766e-28,-3.520499461906766e-28,-0.7908523300911907,-3.809257185778541e-27,-3.809257185778541e-27,-0.32138218306423383,0.0,70.0,255.0,255.0,255.0
40,2.0,-1.873504651696963e-29,-1.873504651696963e-29,-0.8883961205433991,-5.1920084940465055e-28,-5.1920084940465055e-28,-0.8068311999485323,-1.3774719915332773e-27,-1.3774719915332773e-27,-0.31801071162740335,0.0,70.0,255.0,255.0,255.0
41,2.0500000000000003,-4.76034819226935e-29,-4.76034819226935e-29,-0.9291350111685045,-4.897971453440043e-28,-4.897971453440043e-28,-0.822653401253931,3.8056886054897376e-27,3.8056886054897376e-27,-0.3151112504858333,0.0,70.0,255.0,255.0,255.0
42,2.1,-6.771476105137007e-29,-6.771476105137007e-29,-0.9706614606687922,-1.3863198885567672e-28,-1.3863198885567672e-28,-0.8383423249971156,1.0058469542901635e-26,1.0058469542901635e-26,-0.31255490065488223,0.0,70.0,255.0,255.0,255.0
43,2.15,-6.146668080826117e-29,-6.146668080826117e-29,-1.012969243668216,5.1604980894615915e-28,5.1604980894615915e-28,-0.8539088913194193,1.4525002581555954e-26,1.4525002581555954e-26,-0.3100916664588671,0.0,70.0,255.0,255.0,255.0
44,2.2,-1.610978015675415e-29,-1.610978015675415e-29,-1.0560523498007341,1.3138682692999186e-27,1.3138682692999186e-27,-0.8693514916430023,1.4216341226776627e-26,1.4216341226776627e-26,-0.30746950672599915,0.0,70.0,255.0,255.0,255.0
45,2.25,6.99201461217307e-29,6.99201461217307e-29,-1.0999043928325163,1.937683931623822e-27,1.937683931623822e-27,-0.8846558419920192,5.140795505330645e-27,5.140795505330645e-27,-0.30442703372484115,0.0,70.0,255.0,255.0,255.0
46,2.3000000000000003,1.7765861300562806e-28,1.7765861300562806e-28,-1.144517933999936,1.827947819832983e-27,1.827947819832983e-27,-0.8997941950154864,-1.4203023103706357e-26,-1.4203023103706357e-26,-0.30083715750979234,0.0,70.0,255.0,255.0,255.0
47,2.35,2.5271492810502904e-28,2.5271492810502904e-28,-1.189883812334065,5.173816212531861e-28,5.173816212531861e-28,-0.9147395577429984,-3.753871924790823e-26,-3.753871924790823e-26,-0.2968660072210305,0.0,70.0,255.0,255.0,255.0
48,2.4000000000000004,2.2939677513094667e-28,2.2939677513094667e-28,-1.235991889774236,-1.92592410495784e-27,-1.92592410495784e-27,-0.9294807957375895,-5.420804752262185e-26,-5.420804752262185e-26,-0.29282947458628694,0.0,70.0,255.0,255.0,255.0
49,2.45,6.012251760924503e-29,6.012251760924503e-29,-1.2828318919078239,-4.903423131008998e-27,-4.903423131008998e-27,-0.9440225052016271,-5.305610772132797e-26,-5.305610772132797e-26,-0.28903965017146316,0.0,70.0,255.0,255.0,255.0
50,2.5,-2.6094553796995323e-28,-2.6094553796995323e-28,-1.3303941402943986,-7.231534877090637e-27,-7.231534877090637e-27,-0.9583847607547358,-1.9185710029789324e-26,-1.9185710029789324e-26,-0.2858130882049448,0.0,70.0,255.0,255.0,255.0
51,2.5500000000000003,-6.630309700998187e-28,-6.630309700998187e-28,-1.3786703679832975,-6.821994133987931e-27,-6.821994133987931e-27,-0.9726038140221216,5.300640380933569e-26,5.300640380933569e-26,-0.2833004924353455,0.0,70.0,255.0,255.0,255.0
52,2.6,-9.431449513687463e-28,-9.431449513687463e-28,-1.4276545216966108,-1.9308944961570678e-27,-1.9308944961570678e-27,-0.9867148099982703,1.4009640744873133e-25,1.4009640744873133e-25,-0.2812938909740659,0.0,70.0,255.0,255.0,255.0
53,2.6500000000000004,-8.561204197155255e-28,-8.561204197155255e-28,-1.4773418489831245,7.187646610885204e-27,7.187646610885204e-27,-1.0007332031195282,2.0230718750893148e-25,2.0230718750893148e-25,-0.2793967755225113,0.0,70.0,255.0,255.0,255.0
54,2.7,-2.2438029028022585e-28,-2.2438029028022585e-28,-1.5277278420085636,1.829982425473608e-26,1.829982425473608e-26,-1.0146544875505215,1.9800808965853534e-25,1.9800808965853534e-25,-0.27721254526877903,0.0,70.0,255.0,255.0,255.0
55,2.75,9.738620057580827e-28,9.738620057580827e-28,-1.5788072977381766,2.698845557673874e-26,2.698845557673874e-26,-1.028454457646406,7.160204461382666e-26,7.160204461382666e-26,-0.2743446693992402,0.0,70.0,255.0,255.0,255.0
56,2.8000000000000003,2.4744652673936483e-27,2.4744652673936483e-27,-1.6305732877732042,2.5460028716118747e-26,2.5460028716118747e-26,-1.0420889544904455,-1.9782259213363666e-25,-1.9782259213363666e-25,-0.27060049978822054,0.0,70.0,255.0,255.0,255.0
57,2.85,3.519864877369957e-27,3.519864877369957e-27,-1.6830161931872212,7.206196363375073e-27,7.206196363375073e-27,-1.0555145076252281,-5.228469105470173e-25,-5.228469105470173e-25,-0.26620831233272746,0.0,70.0,255.0,255.0,255.0
58,2.9000000000000004,3.1950849037311557e-27,3.1950849037311557e-27,-1.736124738535727,-2.6824662338582974e-26,-2.6824662338582974e-26,-1.0687097857237182,-7.550207025131036e-25,-7.550207025131036e-25,-0.2616143790350023,0.0,70.0,255.0,255.0,255.0
59,2.95,8.373986435116598e-28,8.373986435116598e-28,-1.789887171759593,-6.82958738879353e-26,-6.82958738879353e-26,-1.0816759455287284,-7.389762509128133e-25,-7.389762509128133e-25,-0.2572695160726335,0.0,70.0,255.0,255.0,255.0
60,3.0,-3.6345024850623746e-27,-3.6345024850623746e-27,-1.8442923330885999,-1.0072228742986431e-25,-1.0072228742986431e-25,-1.0944367373309816,-2.6722246842551733e-25,-2.6722246842551733e-25,-0.253628187577859,0.0,70.0,255.0,255.0,255.0
61,3.0500000000000003,-9.234830099474772e-27,-9.234830099474772e-27,-1.8993308454926912,-9.501812073048703e-26,-9.501812073048703e-26,-1.1070387642865143,7.382839647252105e-25,7.382839647252105e-25,-0.2509173685516508,0.0,70.0,255.0,255.0,255.0
62,3.1,-1.3136314558111078e-26,-1.3136314558111078e-26,-1.9549962095172513,-2.689389095734326e-26,-2.689389095734326e-26,-1.1195284741861466,1.9512912347393366e-24,1.9512912347393366e-24,-0.24890204384420134,0.0,70.0,255.0,255.0,255.0
63,3.1500000000000004,-1.1924219195209098e-26,-1.1924219195209098e-26,-2.011283692911306,1.0011100274344663e-25,1.0011100274344663e-25,-1.1319289686709344,2.8177756225434847e-24,2.8177756225434847e-24,-0.2471165241885176,0.0,70.0,255.0,255.0,255.0
64,3.2,-3.125214283766415e-27,-3.125214283766415e-27,-2.0681891063843447,2.5488367129700523e-25,2.5488367129700523e-25,-1.1442401266049984,2.75789691399272e-24,2.75789691399272e-24,-0.2450962435873949,0.0,70.0,255.0,255.0,255.0
65,3.25,1.3564147934491426e-26,1.3564147934491426e-26,-2.1257077055718057,3.7590069414271864e-25,3.7590069414271864e-25,-1.156438593029674,9.972878290882418e-25,9.972878290882418e-25,-0.24237465488119447,0.0,70.0,255.0,255.0,255.0
66,3.3000000000000003,3.446485513050545e-26,3.446485513050545e-26,-2.183832965687312,3.546124542058294e-25,3.546124542058294e-25,-1.1684775920931179,-2.7553132667672064e-24,-2.7553132667672064e-24,-0.23871687915222317,0.0,70.0,255.0,255.0,255.0
67,3.35,4.902539335507437e-26,4.902539335507437e-26,-2.2425554647811174,1.0036936746599798e-25,1.0036936746599798e-25,-1.1803102809448962,-7.282318028410328e-24,-7.282318028410328e-24,-0.2343543281412952,0.0,70.0,255.0,255.0,255.0
68,3.4000000000000004,4.450179187710525e-26,4.450179187710525e-26,-2.3018639937818017,-3.7361934863520354e-25,-3.7361934863520354e-25,-1.1919130249072474,-1.0516081787660834e-23,-1.0516081787660834e-23,-0.229748708360189,0.0,70.0,255.0,255.0,255.0
69,3.45,1.1663458491554013e-26,1.1663458491554013e-26,-2.361746767271842,-9.512388113000854e-25,-9.512388113000854e-25,-1.203285151780915,-1.0292611405058062e-23,-1.0292611405058062e-23,-0.22535865643100728,0.0,70.0,255.0,255.0,255.0
70,3.5,-5.06220892529033e-26,-5.06220892529033e-26,-2.4221925089598932,-1.4028804891410099e-24,-1.4028804891410099e-24,-1.214448890550348,-3.721928847927452e-24,-3.721928847927452e-24,-0.22164111830518252,0.0,70.0,255.0,255.0,255.0
71,3.5500000000000003,-1.28624590422547e-25,-1.28624590422547e-25,-2.483191656326877,-1.3234316960928306e-24,-1.3234316960928306e-24,-1.2254492636114334,1.0282969102343608e-23,1.0282969102343608e-23,-0.21882826169252745,0.0,70.0,255.0,255.0,255.0
72,3.6,-1.8296525886218638e-25,-1.8296525886218638e-25,-2.5447374353210366,-3.7458357890664895e-25,-3.7458357890664895e-25,-1.2363317167196008,2.717798087890198e-23,2.717798087890198e-23,-0.21670982773969172,0.0,70.0,255.0,255.0,255.0
73,3.6500000000000004,-1.6608294831321189e-25,-1.6608294831321189e-25,-2.606824827998837,1.3943663917973678e-24,1.3943663917973678e-24,-1.2471202463854025,3.924655152809986e-23,3.924655152809986e-23,-0.2148594582217278,0.0,70.0,255.0,255.0,255.0
74,3.7,-4.352861968244959e-26,-4.352861968244959e-26,-2.669449459959577,3.550071573903337e-24,3.550071573903337e-24,-1.2578176625417736,3.841254870623942e-23,3.841254870623942e-23,-0.21285598383551374,0.0,70.0,255.0,255.0,255.0
75,3.75,1.8892420907712184e-25,1.8892420907712184e-25,-2.7326065942530144,5.23562126242131e-24,5.23562126242131e-24,-1.268405844768954,1.3890427562621687e-23,1.3890427562621687e-23,-0.21029294648982066,0.0,70.0,255.0,255.0,255.0
76,3.8000000000000003,4.800335065596815e-25,4.800335065596815e-25,-2.796290044436472,4.9391143301655055e-24,4.9391143301655055e-24,-1.2788469571907557,-3.8376563142606905e-23,-3.8376563142606905e-23,-0.2069569272242333,0.0,70.0,255.0,255.0,255.0
77,3.85,6.828356420936723e-25,6.828356420936723e-25,-2.86049128997209,1.397964948160619e-24,1.397964948160619e-24,-1.2891015374913772,-1.0142960548719773e-22,-1.0142960548719773e-22,-0.20297717675106242,0.0,70.0,255.0,255.0,255.0
78,3.9000000000000004,6.198300013757434e-25,6.198300013757434e-25,-2.92520019818561,-5.2038462185542686e-24,-5.2038462185542686e-24,-1.299144674865862,-1.464701243247388e-22,-1.464701243247388e-22,-0.19864264290276878,0.0,70.0,255.0,255.0,255.0
79,3.95,1.624510202382455e-25,1.624510202382455e-25,-2.990405757458676,-1.3249047484313262e-23,-1.3249047484313262e-23,-1.3089658017816541,-1.4335758341989967e-22,-1.4335758341989967e-22,-0.194270834800081,0.0,70.0,255.0,255.0,255.0
80,4.0,-7.0507474705558285e-25,-7.0507474705558285e-25,-3.0560967783637754,-1.9539604560544238e-23,-1.9539604560544238e-23,-1.31857175834587,-5.1839781402559254e-23,-5.1839781402559254e-23,-0.19026718897499073,0.0,70.0,255.0,255.0,255.0
81,4.05,-1.7915094358161783e-24,-1.7915094358161783e-24,-3.122262933293263,-1.8433025624569187e-23,-1.8433025624569187e-23,-1.3279925206791532,1.432232834680841e-22,1.432232834680841e-22,-0.18683437906070743,0.0,70.0,255.0,255.0,255.0
82,4.1000000000000005,-2.548377309512502e-24,-2.548377309512502e-24,-3.1888960304316907,-5.2172762137358255e-24,-5.2172762137358255e-24,-1.3372551962519408,3.785404410698888e-22,3.785404410698888e-22,-0.183621278776247,0.0,70.0,255.0,255.0,255.0
83,4.15,-2.313237057189761e-24,-2.313237057189761e-24,-3.2559884529184573,1.9421018482419698e-23,1.9421018482419698e-23,-1.3463546485567779,5.466339457708554e-22,5.466339457708554e-22,-0.18001519161323642,0.0,70.0,255.0,255.0,255.0
84,4.2,-6.06275461270532e-25,-6.06275461270532e-25,-3.3235314952873685,4.944611836334971e-23,4.944611836334971e-23,-1.3552567154132644,5.350177849733593e-22,5.350177849733593e-22,-0.1754850126285845,0.0,70.0,255.0,255.0,255.0
85,4.25,2.63137477914521e-24,2.63137477914521e-24,-3.3915141244597837,7.292279697975564e-23,7.292279697975564e-23,-1.3639031498196363,1.9346869804761565e-22,1.9346869804761565e-22,-0.16955876381001822,0.0,70.0,255.0,255.0,255.0
86,4.3,6.686004236705033e-24,6.686004236705033e-24,-3.459921810269332,6.879298816811128e-23,6.879298816811128e-23,-1.3722125917942662,-5.345165707297294e-22,-5.345165707297294e-22,-0.1620468152737864,0.0,70.0,255.0,255.0,255.0
87,4.3500000000000005,9.510673595956338e-24,9.510673595956338e-24,-3.5287353836392104,1.947113990678269e-23,1.947113990678269e-23,-1.380107831347015,-1.4127321587923585e-21,-1.4127321587923585e-21,-0.1533535589599122,0.0,70.0,255.0,255.0,255.0
88,4.4,8.633118227383302e-24,8.633118227383302e-24,-3.5979325934040336,-7.248022771112459e-23,-7.248022771112459e-23,-1.3875479476902575,-2.040065658758682e-21,-2.040065658758682e-21,-0.1442508097589723,0.0,70.0,255.0,255.0,255.0
89,4.45,2.26265082484388e-24,2.26265082484388e-24,-3.667490178408236,-1.8453542596908553e-22,-1.8453542596908553e-22,-1.3945329123229122,-1.9967135564735468e-21,-1.9967135564735468e-21,-0.1355563874134713,0.0,70.0,255.0,255.0,255.0
90,4.5,-9.820424369525253e-24,-9.820424369525253e-24,-3.737385884636325,-2.721515833584793e-22,-2.721515833584793e-22,-1.4011035864316046,-7.220350107878994e-22,-7.220350107878994e-22,-0.1280419049684678,0.0,70.0,255.0,255.0,255.0
91,4.55,-2.495250751100405e-23,-2.495250751100405e-23,-3.8076005370513966,-2.567389270478755e-22,-2.567389270478755e-22,-1.407337102819759,1.9948429994508685e-21,1.9948429994508685e-21,-0.12211178641665654,0.0,70.0,255.0,255.0,255.0
92,4.6000000000000005,-3.54943170743128e-23,-3.54943170743128e-23,-3.8781195949183007,-7.266728341339243e-23,-7.266728341339243e-23,-1.4133147650732703,5.272388194099558e-21,5.272388194099558e-21,-0.11757744575753293,0.0,70.0,255.0,255.0,255.0
93,4.65,-3.2219235852343293e-23,-3.2219235852343293e-23,-3.9489320135587236,2.7049989236208028e-22,2.7049989236208028e-22,-1.4190948473955123,7.613628689263858e-21,7.613628689263858e-21,-0.1139686089785652,0.0,70.0,255.0,255.0,255.0
94,4.7,-8.444327838104778e-24,-8.444327838104778e-24,-4.020029079657852,6.886955855129934e-22,6.886955855129934e-22,-1.4247116259711268,7.451836440920814e-21,7.451836440920814e-21,-0.11076272443095725,0.0,70.0,255.0,255.0,255.0
95,4.75,3.6650322698956055e-23,3.6650322698956055e-23,-4.091403176155836,1.0156835364541618e-21,1.0156835364541618e-21,-1.430171119838608,2.694671345103972e-21,2.694671345103972e-21,-0.10738149510349793,0.0,70.0,255.0,255.0,255.0
96,4.800000000000001,9.312402580731141e-23,9.312402580731141e-23,-4.163046191641713,9.581627200233906e-22,9.581627200233906e-22,-1.4354497754814766,-7.444855427073748e-21,-7.444855427073748e-21,-0.10348496679810637,0.0,70.0,255.0,255.0,255.0
97,4.8500000000000005,1.3246659470129513e-22,1.3246659470129513e-22,-4.234948153703984,2.711979937467869e-22,2.711979937467869e-22,-1.4405196165184186,-1.9676820617605875e-20,-1.9676820617605875e-20,-0.09918421045798098,0.0,70.0,255.0,255.0,255.0
98,4.9,1.202438251819901e-22,1.202438251819901e-22,-4.307098153293555,-1.009519341737197e-21,-1.009519341737197e-21,-1.4453681965272747,-2.8414449098296766e-20,-2.8414449098296766e-20,-0.0947379711104368,0.0,70.0,255.0,255.0,255.0
99,4.95,3.151466052757541e-23,3.151466052757541e-23,-4.379484973356711,-2.5702469160828902e-21,-2.5702469160828902e-21,-1.4499934136294623,-2.781063220720973e-20,-2.781063220720973e-20,-0.09033779644749274,0.0,70.0,255.0,255.0,255.0
100,5.0,-1.3678086642629894e-22,-1.3678086642629894e-22,-4.452097494656501,-3.790582562458171e-21,-3.790582562458171e-21,-1.454401976172024,-1.005665036962797e-20,-1.005665036962797e-20,-0.08616376962864436,0.0,70.0,255.0,255.0,255.0
101,5.050000000000001,-3.475435957182417e-22,-3.475435957182417e-22,-4.524925170973914,-3.575911953045687e-21,-3.575911953045687e-21,-1.4586097905923268,2.7784578708844154e-20,2.7784578708844154e-20,-0.08230881259132516,0.0,70.0,255.0,255.0,255.0
102,5.1000000000000005,-4.943720617308677e-22,-4.943720617308677e-22,-4.5979584737157335,-1.0121246915737552e-21,-1.0121246915737552e-21,-1.4626328574311565,7.343489427632393e-20,7.343489427632393e-20,-0.07868487325026763,0.0,70.0,255.0,255.0,255.0
103,5.15,-4.487560648756172e-22,-4.487560648756172e-22,-4.671188456717029,3.767577474586707e-21,3.767577474586707e-21,-1.4664782779173535,1.0604416770392323e-19,1.0604416770392323e-19,-0.07511866741882756,0.0,70.0,255.0,255.0,255.0
104,5.2,-1.1761431427219699e-22,-1.1761431427219699e-22,-4.744606301507469,9.592292078818568e-21,9.592292078818568e-21,-1.4701447241730392,1.0379069238791814e-19,1.0379069238791814e-19,-0.07144711541924309,0.0,70.0,255.0,255.0,255.0
105,5.25,5.104731430062395e-22,5.104731430062395e-22,-4.818202929134333,1.4146646713378522e-20,1.4146646713378522e-20,-1.4736229894592778,3.753193013340792e-20,3.753193013340792e-20,-0.06751941705775977,0.0,70.0,255.0,255.0,255.0
106,5.300000000000001,1.2970503570656551e-21,1.2970503570656551e-21,-4.891968600453397,1.334548509215936e-20,1.334548509215936e-20,-1.4768966658788152,-1.036934594083029e-19,-1.036934594083029e-19,-0.06325927001693543,0.0,70.0,255.0,255.0,255.0
107,5.3500000000000005,1.8450216522221756e-21,1.8450216522221756e-21,-4.965892595722215,3.7773007725482314e-21,3.7773007725482314e-21,-1.4799489164609714,-2.740627564876899e-19,-2.740627564876899e-19,-0.05872077206632298,0.0,70.0,255.0,255.0,255.0
108,5.4,1.6747804343204783e-21,1.6747804343204783e-21,-5.039963492099494,-1.406079055660963e-20,-1.406079055660963e-20,-1.4827687430854475,-3.95762221717396e-19,-3.95762221717396e-19,-0.05402372285026047,0.0,70.0,255.0,255.0,255.0
109,5.45,4.389425965612124e-22,4.389425965612124e-22,-5.11416947003076,-3.5798921399191375e-20,-3.5798921399191375e-20,-1.4853512887459974,-3.8735213734446275e-19,-3.8735213734446275e-19,-0.049293229053759546,0.0,70.0,255.0,255.0,255.0
110,5.5,-1.9051117055986592e-21,-1.9051117055986592e-21,-5.1884986209740935,-5.279600429105591e-20,-5.279600429105591e-20,-1.4876980659908234,-1.400710701640038e-19,-1.400710701640038e-19,-0.04464658078839889,0.0,70.0,255.0,255.0,255.0
111,5.550000000000001,-4.840657832544379e-21,-4.840657832544379e-21,-5.262939276629842,-4.9806028415591757e-20,-4.9806028415591757e-20,-1.4898159468248373,3.869892589243673e-19,3.869892589243673e-19,-0.04015359452171907,0.0,70.0,255.0,255.0,255.0
112,5.6000000000000005,-6.885714547157835e-21,-6.885714547157835e-21,-5.337480215656577,-1.4097078398619177e-20,-1.4097078398619177e-20,-1.4917134254429953,1.0228161316744357e-18,1.0228161316744357e-18,-0.035828402120863245,0.0,70.0,255.0,255.0,255.0
113,5.65,-6.250365672406297e-21,-6.250365672406297e-21,-5.4121106191741415,5.2475584751851815e-20,5.2475584751851815e-20,-1.4933987870369236,1.4770047191656608e-18,1.4770047191656608e-18,-0.03167091670430722,0.0,70.0,255.0,255.0,255.0
114,5.7,-1.6381560719726527e-21,-1.6381560719726527e-21,-5.48682009436027,1.3360339351794692e-19,1.3360339351794692e-19,-1.494880517113426,1.4456178569899326e-18,1.4456178569899326e-18,-0.027679455545204235,0.0,70.0,255.0,255.0,255.0
115,5.75,7.109973679388396e-21,7.109973679388396e-21,-5.561598670885484,1.9703737045084508e-19,1.9703737045084508e-19,-1.496166732591444,5.227523505226073e-19,5.227523505226073e-19,-0.023850250464185763,0.0,70.0,255.0,255.0,255.0
116,5.800000000000001,1.8065580973111857e-20,1.8065580973111857e-20,-5.636436767619414,1.8587862857020765e-19,1.8587862857020765e-19,-1.4972655421598446,-1.4442635762891656e-18,-1.4442635762891656e-18,-0.020167377537294584,0.0,70.0,255.0,255.0,255.0
117,5.8500000000000005,2.5697836536409163e-20,2.5697836536409163e-20,-5.711325225101469,5.261101282192852e-20,5.261101282192852e-20,-1.4981834703451735,-3.817201770210053e-18,-3.817201770210053e-18,-0.016564780288952363,0.0,70.0,255.0,255.0,255.0
118,5.9,2.332668225530471e-20,2.332668225530471e-20,-5.786255114653931,-1.9584154845079763e-19,-1.9584154845079763e-19,-1.4989220201887399,-5.512256654945248e-18,-5.512256654945248e-18,-0.012931771171764694,0.0,70.0,255.0,255.0,255.0
119,5.95,6.113681691329398e-21,6.113681691329398e-21,-5.8612174271203425,-4.986146526725963e-19,-4.986146526725963e-19,-1.49947664746235,-5.395119290615269e-18,-5.395119290615269e-18,-0.009149974407485217,0.0,70.0,255.0,255.0,255.0
120,6.0,-2.653478301195493e-20,-2.653478301195493e-20,-5.936202779400166,-7.353534775123245e-19,-7.353534775123245e-19,-1.4998370176294884,-1.950938331926425e-18,-1.950938331926425e-18,-0.005108408030807254,0.0,70.0,255.0,255.0,255.0
121,6.050000000000001,-6.742166605990306e-20,-6.742166605990306e-20,-6.011201128883291,-6.937084858652388e-19,-6.937084858652388e-19,-1.4999874882654307,5.390065046232298e-18,5.390065046232298e-18,-0.0007563825080048048,0.0,70.0,255.0,255.0,255.0
122,6.1000000000000005,-9.590563159847882e-20,-9.590563159847882e-20,-6.0862015282267095,-1.963469728890947e-19,-1.963469728890947e-19,-1.4999126558802889,1.4245990949165778e-17,1.4245990949165778e-17,0.00384304775318256,0.0,70.0,255.0,255.0,255.0
123,6.15,-8.705636334881253e-20,-8.705636334881253e-20,-6.16119239447132,7.308906090513389e-19,7.308906090513389e-19,-1.4996031834901125,2.057202190061533e-17,2.057202190061533e-17,0.0085616377545783,0.0,70.0,255.0,255.0,255.0
124,6.2,-2.2816570693344917e-20,-2.2816570693344917e-20,-6.236161846575721,1.8608552171724383e-18,1.8608552171724383e-18,-1.499056492104831,2.013485930547113e-17,2.013485930547113e-17,0.013259865994097453,0.0,70.0,255.0,255.0,255.0
125,6.25,9.902915836843131e-20,9.902915836843131e-20,-6.311098043681803,2.744376539598452e-18,2.744376539598452e-18,-1.4982771968907027,7.281000977183091e-18,7.281000977183091e-18,0.017795863940417433,0.0,70.0,255.0,255.0,255.0
126,6.300000000000001,2.5162108326650034e-19,2.5162108326650034e-19,-6.385989566264791,2.5889553148907476e-18,2.5889553148907476e-18,-1.4972769057107893,-2.0115996608640016e-17,-2.0115996608640016e-17,0.02209342039112272,0.0,70.0,255.0,255.0,255.0
127,6.3500000000000005,3.5792468985750607e-19,3.5792468985750607e-19,-6.460825734252882,7.327768787344508e-19,7.327768787344508e-19,-1.4960678548515904,-5.3166762026453054e-17,-5.3166762026453054e-17,0.026196225639019133,0.0,70.0,255.0,255.0,255.0
128,6.4,3.248987711399454e-19,3.248987711399454e-19,-6.53559635174995,-2.7277208877545583e-18,-2.7277208877545583e-18,-1.4946572831468874,-7.677583094751609e-17,-7.677583094751609e-17,0.03020074462796174,0.0,70.0,255.0,255.0,255.0
129,6.45,8.515260108205025e-20,8.515260108205025e-20,-6.610291462567571,-6.944806216017158e-18,-6.944806216017158e-18,-1.4930477803887943,-7.514431793126928e-17,-7.514431793126928e-17,0.03420430996463608,0.0,70.0,255.0,255.0,255.0
130,6.5,-3.695818504617704e-19,-3.695818504617704e-19,-6.684901129788829,-1.0242152680881487e-17,-1.0242152680881487e-17,-1.4912368521504238,-2.717306557680592e-17,-2.717306557680592e-17,0.038316933622617455,0.0,70.0,255.0,255.0,255.0
131,6.550000000000001,-9.390626670060985e-19,-9.390626670060985e-19,-6.759415147782613,-9.66211277369775e-18,-9.66211277369775e-18,-1.4892160870265325,7.507392138832781e-17,7.507392138832781e-17,0.042595474837447966,0.0,70.0,255.0,255.0,255.0
132,6.6000000000000005,-1.3357931278315455e-18,-1.3357931278315455e-18,-6.833822738491483,-2.7347605420487063e-18,-2.7347605420487063e-18,-1.486977304666679,1.9842105715664643e-16,1.9842105715664643e-16,0.04697111728866332,0.0,70.0,255.0,255.0,255.0
133,6.65,-1.212538721210969e-18,-1.212538721210969e-18,-6.908112878249281,1.0179992941966891e-17,1.0179992941966891e-17,-1.4845189752976662,2.8653130188944893e-16,2.8653130188944893e-16,0.05131715529458347,0.0,70.0,255.0,255.0,255.0
134,6.7,-3.177938336348563e-19,-3.177938336348563e-19,-6.982274636021249,2.5918369646896184e-17,2.5918369646896184e-17,-1.4818455891372206,2.8044241241960594e-16,2.8044241241960594e-16,0.05551580789990851,0.0,70.0,255.0,255.0,255.0
135,6.75,1.3792982434786496e-18,1.3792982434786496e-18,-7.056297437163003,3.822423418392749e-17,3.822423418392749e-17,-1.4789673945076753,1.0141126133004074e-16,1.0141126133004074e-16,0.05944045751293814,0.0,70.0,255.0,255.0,255.0
136,6.800000000000001,3.504629584757893e-18,3.504629584757893e-18,-7.130171375472017,3.605949577990026e-17,3.605949577990026e-17,-1.4759015433859268,-2.801796889446712e-16,-2.801796889446712e-16,0.06303759401253828,0.0,70.0,255.0,255.0,255.0
137,6.8500000000000005,4.985247821468676e-18,4.985247821468676e-18,-7.203887591501596,1.0206265289460368e-17,1.0206265289460368e-17,-1.4726636351064215,-7.405174666001326e-16,-7.405174666001326e-16,0.06644107676816446,0.0,70.0,255.0,255.0,255.0
138,6.9,4.5252561137039295e-18,4.5252561137039295e-18,-7.277437738982659,-3.799225088011301e-17,-3.799225088011301e-17,-1.4692574357091104,-1.0693493766102795e-15,-1.0693493766102795e-15,0.06988970179264697,0.0,70.0,255.0,255.0,255.0
139,6.95,1.1860227334573747e-18,1.1860227334573747e-18,-7.350813335072507,-9.672867237156758e-17,-9.672867237156758e-17,-1.4656746649271568,-1.0466253317471544e-15,-1.0466253317471544e-15,0.07361851904184036,0.0,70.0,255.0,255.0,255.0
140,7.0,-5.147611123452829e-18,-5.147611123452829e-18,-7.424005205475375,-1.4265478405482846e-16,-1.4265478405482846e-16,-1.4618955838049263,-3.784719797433571e-16,-3.784719797433571e-16,0.07786118970596334,0.0,70.0,255.0,255.0,255.0
141,7.050000000000001,-1.3079455672025472e-17,-1.3079455672025472e-17,-7.497002893453,-1.345758703459033e-16,-1.345758703459033e-16,-1.4578885459565605,1.0456448343903565e-15,1.0456448343903565e-15,0.08272174818042544,0.0,70.0,255.0,255.0,255.0
142,7.1000000000000005,-1.860519815804316e-17,-1.860519815804316e-17,-7.569794060071031,-3.80903006157928e-17,-3.80903006157928e-17,-1.4536234089868838,2.7636488092438844e-15,2.7636488092438844e-15,0.08801832855152014,0.0,70.0,255.0,255.0,255.0
143,7.15,-1.6888485733604752e-17,-1.6888485733604752e-17,-7.642365234351688,1.4178901057848517e-16,1.4178901057848517e-16,-1.4490867131014085,3.99086620455167e-15,3.99086620455167e-15,0.09340860629878378,0.0,70.0,255.0,255.0,255.0
144,7.2,-4.426297100194641e-18,-4.426297100194641e-18,-7.714702731381172,3.609963198393742e-16,3.609963198393742e-16,-1.4442825483570054,3.906058914569011e-15,3.906058914569011e-15,0.09854456814810675,0.0,70.0,255.0,255.0,255.0
145,7.25,1.921114625033267e-17,1.921114625033267e-17,-7.786793489187389,5.323949020353863e-16,5.323949020353863e-16,-1.4392322562865978,1.4124766576433862e-15,1.4124766576433862e-15,0.10308681163611055,0.0,70.0,255.0,255.0,255.0
146,7.300000000000001,4.8813193103343996e-17,4.8813193103343996e-17,-7.858625957009831,5.022439856037128e-16,5.022439856037128e-16,-1.4339738671933944,-3.902399648616755e-15,-3.902399648616755e-15,0.1068683270181836,0.0,70.0,255.0,255.0,255.0
147,7.3500000000000005,6.943554481070395e-17,6.943554481070395e-17,-7.930190875906728,1.4215493717371084e-16,1.4215493717371084e-16,-1.4285454235847794,-1.0314077770375405e-14,-1.0314077770375405e-14,0.11005549247506963,0.0,70.0,255.0,255.0,255.0
148,7.4,6.302868682071508e-17,6.302868682071508e-17,-8.00148049936831,-5.291637914338276e-16,-5.291637914338276e-16,-1.4229683179458874,-1.4894115441596396e-14,-1.4894115441596396e-14,0.11298682872347143,0.0,70.0,255.0,255.0,255.0
149,7.45,1.651916566732119e-17,1.651916566732119e-17,-8.072487707701317,-1.3472566069859289e-15,-1.3472566069859289e-15,-1.4172467407124323,-1.4577610326528894e-14,-1.4577610326528894e-14,0.11600926897195052,0.0,70.0,255.0,255.0,255.0
150,7.5,-7.169697387787783e-17,-7.169697387787783e-17,-8.143205173439553,-1.986924824086717e-15,-1.986924824086717e-15,-1.4113673910486924,-5.271434650830196e-15,-5.271434650830196e-15,0.11946354510161683,0.0,70.0,255.0,255.0,255.0
151,7.550000000000001,-1.8217331674135052e-16,-1.8217331674135052e-16,-8.213624446806186,-1.8744000720689485e-15,-1.8744000720689485e-15,-1.4053003862022706,1.456395376007666e-14,1.456395376007666e-14,0.12353100435245068,0.0,70.0,255.0,255.0,255.0
152,7.6000000000000005,-2.591369810847727e-16,-2.591369810847727e-16,-8.28373521205978,-5.30529448079051e-16,-5.30529448079051e-16,-1.3990142906134473,3.8492662272257736e-14,3.8492662272257736e-14,0.12811065725841786,0.0,70.0,255.0,255.0,255.0
153,7.65,-2.3522626154925563e-16,-2.3522626154925563e-16,-8.35352587586753,1.9748661551568255e-15,1.9748661551568255e-15,-1.3924893204764288,5.558559556183392e-14,5.558559556183392e-14,0.13297396225731006,0.0,70.0,255.0,255.0,255.0
154,7.7,-6.165036556909015e-17,-6.165036556909015e-17,-8.422984144107422,5.028030108104342e-15,5.028030108104342e-15,-1.3857168943877163,5.440438239154655e-14,5.440438239154655e-14,0.13789126971843757,0.0,70.0,255.0,255.0,255.0
155,7.75,2.675767492611786e-16,2.675767492611786e-16,-8.492097565306302,7.415304394311481e-15,7.415304394311481e-15,-1.378700193504585,1.9673261945677147e-14,1.9673261945677147e-14,0.14263103592995208,0.0,70.0,255.0,255.0,255.0
156,7.800000000000001,6.79880073862058e-16,6.79880073862058e-16,-8.560854163457881,6.9953563026720565e-15,6.9953563026720565e-15,-1.371453790794721,-5.4353415391689837e-14,-5.4353415391689837e-14,0.1470621077857004,0.0,70.0,255.0,255.0,255.0
157,7.8500000000000005,9.671123795283843e-16,9.671123795283843e-16,-8.629242944385775,1.979962855142497e-15,1.979962855142497e-15,-1.363993982726015,-1.4365657131865508e-13,-1.4365657131865508e-13,0.15122644725558132,0.0,70.0,255.0,255.0,255.0
158,7.9,8.778763593763077e-16,8.778763593763077e-16,-8.697253561730482,-7.37030082919345e-15,-7.37030082919345e-15,-1.356331146069163,-2.0744826680573883e-13,-2.0744826680573883e-13,0.1552310751602448,0.0,70.0,255.0,255.0,255.0
159,7.95,2.300822966090391e-16,2.300822966090391e-16,-8.76487605899269,-1.8764863825431388e-14,-1.8764863825431388e-14,-1.3484708752099905,-2.030399192396566e-13,-2.030399192396566e-13,0.15917325122192238,0.0,70.0,255.0,255.0,255.0
160,8.0,-9.98610023166831e-16,-9.98610023166831e-16,-8.832100649251482,-2.767429275315911e-14,-2.767429275315911e-14,-1.3404138209469707,-7.342161313187819e-14,-7.342161313187819e-14,0.1631522645595851,0.0,70.0,255.0,255.0,255.0
161,8.05,-2.537346978706872e-15,-2.537346978706872e-15,-8.898917441087388,-2.6107025138619207e-14,-2.6107025138619207e-14,-1.332155648754032,2.0284970780668204e-13,2.0284970780668204e-13,0.16722662511075015,0.0,70.0,255.0,255.0,255.0
162,8.1,-3.609312537028752e-15,-3.609312537028752e-15,-8.965316214126885,-7.389321972490905e-15,-7.389321972490905e-15,-1.3236911584358957,5.361336230023619e-13,5.361336230023619e-13,0.17138262131890514,0.0,70.0,255.0,255.0,255.0
163,8.15,-3.2762791759559624e-15,-3.2762791759559624e-15,-9.031286556930977,2.7506337161616983e-14,2.7506337161616983e-14,-1.3150173866221415,7.742074716611211e-13,7.742074716611211e-13,0.1755835086635571,0.0,70.0,255.0,255.0,255.0
164,8.200000000000001,-8.586788208670537e-16,-8.586788208670537e-16,-9.096817952789099,7.003142519362121e-14,7.003142519362121e-14,-1.30613280756954,7.577552945670794e-13,7.577552945670794e-13,0.1798019258593797,0.0,70.0,255.0,255.0,255.0
165,8.25,3.7268633434061596e-15,3.7268633434061596e-15,-9.161899837687931,1.0328186661832492e-13,1.0328186661832492e-13,-1.2970371940362035,2.74013190581835e-13,2.74013190581835e-13,0.18401193380395142,0.0,70.0,255.0,255.0,255.0
166,8.3,9.46950784096544e-15,9.46950784096544e-15,-9.22652167219272,9.743274425180471e-14,9.743274425180471e-14,-1.2877316141891448,-7.570454158350389e-13,-7.570454158350389e-13,0.1881981050569692,0.0,70.0,255.0,255.0,255.0
167,8.35,1.3470137768586631e-14,1.3470137768586631e-14,-9.290672999106846,2.7577325034821033e-14,2.7577325034821033e-14,-1.2782173835305066,-2.000877920690792e-12,-2.000877920690792e-12,0.19236306746908127,0.0,70.0,255.0,255.0,255.0
168,8.4,1.2227240344447543e-14,1.2227240344447543e-14,-9.35434341054577,-1.0265504781727453e-13,-1.0265504781727453e-13,-1.2684953074422367,-2.8893816198387445e-12,-2.8893816198387445e-12,0.19651489018599477,0.0,70.0,255.0,255.0,255.0
169,8.450000000000001,3.2046329868591775e-15,3.2046329868591775e-15,-9.41752252985107,-2.613608369490534e-13,-2.613608369490534e-13,-1.2585658945119071,-2.82798125902866e-12,-2.82798125902866e-12,0.2006590453397905,0.0,70.0,255.0,255.0,255.0
170,8.5,-1.39088433504578e-14,-1.39088433504578e-14,-9.48019999999696,-3.8545317372014056e-13,-3.8545317372014056e-13,-1.2484294029082577,-1.022631149195463e-12,-1.022631149195463e-12,0.20480000022597977,0.0,70.0,255.0,255.0,255.0
171,8.55,-3.5340684385154875e-14,-3.5340684385154875e-14,-9.542365470141895,-3.636239518685997e-13,-3.636239518685997e-13,-1.2380858944893092,2.8253319555334715e-12,2.8253319555334715e-12,0.2089409546609744,0.0,70.0,255.0,255.0,255.0
172,8.6,-5.0271238537317776e-14,-5.0271238537317776e-14,-9.604008589445892,-1.029199781667934e-13,-1.029199781667934e-13,-1.2275353074421602,7.46737805976081e-12,7.46737805976081e-12,0.21308510880366782,0.0,70.0,255.0,255.0,255.0
173,8.65,-4.5632682201834215e-14,-4.5632682201834215e-14,-9.665119000886111,3.8311385410748127e-13,3.8311385410748127e-13,-1.2167773836089424,1.0783319007693858e-11,1.0783319007693858e-11,0.21723693059243487,0.0,70.0,255.0,255.0,255.0
174,8.700000000000001,-1.1959853126569648e-14,-1.1959853126569648e-14,-9.725686327806786,9.754119226025924e-13,9.754119226025924e-13,-1.2058116143829167,1.0554169741547557e-11,1.0554169741547557e-11,0.2214018927809036,0.0,70.0,255.0,255.0,255.0
175,8.75,5.190851005842503e-14,5.190851005842503e-14,-9.785700162324403,1.438530828262237e-12,1.438530828262237e-12,-1.194637194330852,3.816511406200016e-12,3.816511406200016e-12,0.22558806529371367,0.0,70.0,255.0,255.0,255.0
176,8.8,1.3189322969965406e-13,1.3189322969965406e-13,-9.845150047239871,1.357063063222594e-12,1.357063063222594e-12,-1.1832528078535454,-1.0544282406298848e-11,-1.0544282406298848e-11,0.2297980763003693,0.0,70.0,255.0,255.0,255.0
177,8.85,1.8761481638068444e-13,1.8761481638068444e-13,-9.904025443109758,3.841025876323522e-13,3.841025876323522e-13,-1.171657386700815,-2.7868634318352443e-11,-2.7868634318352443e-11,0.2340164973157144,0.0,70.0,255.0,255.0,255.0
178,8.9,1.7030348846288929e-13,1.7030348846288929e-13,-9.962315785909952,-1.4298003686126503e-12,-1.4298003686126503e-12,-1.159851158121974,-4.0243894410936685e-11,-4.0243894410936685e-11,0.2382173874428517,0.0,70.0,255.0,255.0,255.0
179,8.950000000000001,4.4634779519419417e-14,4.4634779519419417e-14,-10.020010558921955,-3.640286853461317e-12,-3.640286853461317e-12,-1.14783564795653,-3.93886977071616e-11,-3.93886977071616e-11,0.24237338353589877,0.0,70.0,255.0,255.0,255.0
180,9.0,-1.9372519688324243e-13,-1.9372519688324243e-13,-10.077099350705605,-5.36867013932881e-12,-5.36867013932881e-12,-1.135613819768384,-1.4243414475604598e-11,-1.4243414475604598e-11,0.24644773860007518,0.0,70.0,255.0,255.0,255.0
181,9.05,-4.922322344134616e-13,-4.922322344134616e-13,-10.133571940898793,-5.064628301021777e-12,-5.064628301021777e-12,-1.1231908740965224,3.935179766966195e-11,3.935179766966195e-11,0.2504267401389981,0.0,70.0,255.0,255.0,255.0
182,9.1,-7.001880269854201e-13,-7.001880269854201e-13,-10.189418438115258,-1.433490372362615e-12,-1.433490372362615e-12,-1.1105711457544842,1.0400715921364896e-10,1.0400715921364896e-10,0.25436890193439865,0.0,70.0,255.0,255.0,255.0
183,9.15,-6.355812716497231e-13,-6.355812716497231e-13,-10.244629055474242,5.33608762034312e-12,5.33608762034312e-12,-1.0977539839030825,1.5019225863605285e-10,1.5019225863605285e-10,0.25837351963353683,0.0,70.0,255.0,255.0,255.0
184,9.200000000000001,-1.665792649511081e-13,-1.665792649511081e-13,-10.299193836505566,1.3585735491242673e-11,1.3585735491242673e-11,-1.0847337937911306,1.4700062108709876e-10,1.4700062108709876e-10,0.2625378597880257,0.0,70.0,255.0,255.0,255.0
185,9.25,7.229922774745444e-13,7.229922774745444e-13,-10.353102434853355,2.0036149729052997e-11,2.0036149729052997e-11,-1.07150019792428,5.315714649621966e-11,5.315714649621966e-11,0.2669689523358443,0.0,70.0,255.0,255.0,255.0
186,9.3,1.8370357079541917e-12,1.8370357079541917e-12,-10.406343856297994,1.890145014086464e-11,1.890145014086464e-11,-1.0580368985575461,-1.468629082723491e-10,-1.468629082723491e-10,0.2717087626772141,0.0,70.0,255.0,255.0,255.0
187,9.35,2.6131372915610084e-12,2.6131372915610084e-12,-10.45890612470911,5.349858901818084e-12,5.349858901818084e-12,-1.0443293216565586,-3.8816000253624746e-10,-3.8816000253624746e-10,0.2766261233851708,0.0,70.0,255.0,255.0,255.0
188,9.4,2.372021598136e-12,2.372021598136e-12,-10.51077678846365,-1.9914550112760113e-11,-1.9914550112760113e-11,-1.030374286219029,-5.605251401332768e-10,-5.605251401332768e-10,0.2814894664236789,0.0,70.0,255.0,255.0,255.0
189,9.450000000000001,6.21682280284997e-13,6.21682280284997e-13,-10.561943553331012,-5.07026551115096e-11,-5.07026551115096e-11,-1.0161803750141907,-5.486137866412318e-10,-5.486137866412318e-10,0.2860691167057894,0.0,70.0,255.0,255.0,255.0
190,9.5,-2.6982439130149594e-12,-2.6982439130149594e-12,-10.612394825965069,-7.47759287768833e-11,-7.47759287768833e-11,-1.00176737454845,-1.9838517150927216e-10,-1.9838517150927216e-10,0.2901364986769295,0.0,70.0,255.0,255.0,255.0
191,9.55,-6.855910597403335e-12,-6.855910597403335e-12,-10.662120290785857,-7.054117226243681e-11,-7.054117226243681e-11,-0.9871667251464977,5.480998354197361e-10,5.480998354197361e-10,0.29359061008289444,0.0,70.0,255.0,255.0,255.0
192,9.600000000000001,-9.752361139258641e-12,-9.752361139258641e-12,-10.711111498479719,-1.9965945234909686e-11,-1.9965945234909686e-11,-0.9724083135401607,1.4486328509313413e-09,1.4486328509313413e-09,0.2966128516119326,0.0,70.0,255.0,255.0,255.0
193,9.65,-8.852505120894303e-12,-8.852505120894303e-12,-10.759361122139874,7.43221128306973e-11,7.43221128306973e-11,-0.9575054399853045,2.091908301897054e-09,2.091908301897054e-09,0.29954404590899486,0.0,70.0,255.0,255.0,255.0
194,9.700000000000001,-2.32014985618891e-12,-2.32014985618891e-12,-10.806862042478249,1.892248849547957e-10,1.892248849547957e-10,-0.9424539089492612,2.0474545254778306e-09,2.0474545254778306e-09,0.30273122117350226,0.0,70.0,255.0,255.0,255.0
195,9.75,1.0069983374585267e-11,1.0069983374585267e-11,-10.8536065130348,2.790675653784804e-10,2.790675653784804e-10,-0.9272323178679542,7.403835395408703e-10,7.403835395408703e-10,0.3065130249835235,0.0,70.0,255.0,255.0,255.0
196,9.8,2.558660668165913e-11,2.558660668165913e-11,-10.899585274265045,2.6326323890888274e-10,2.6326323890888274e-10,-0.9118026064509088,-2.0455364334065957e-09,-2.0455364334065957e-09,0.3110558832370103,0.0,70.0,255.0,255.0,255.0
197,9.850000000000001,3.639630726547354e-11,3.639630726547354e-11,-10.94478677367989,7.451392203782079e-11,7.451392203782079e-11,-0.8961267295442532,-5.406371401189118e-09,-5.406371401189118e-09,0.3161925867178894,0.0,70.0,255.0,255.0,255.0
198,9.9,3.303799888544121e-11,3.303799888544121e-11,-10.98919794721947,-2.773739012100291e-10,-2.773739012100291e-10,-0.8801833477791199,-7.80710806745494e-09,-7.80710806745494e-09,0.32158339423205007,0.0,70.0,255.0,255.0,255.0
199,9.950000000000001,8.65891714447063e-12,8.65891714447063e-12,-11.032805108457802,-7.061968847076732e-10,-7.061968847076732e-10,-0.8639683901210482,-7.64120431527009e-09,-7.64120431527009e-09,0.32687993799367376,0.0,70.0,255.0,255.0,255.0
200,10.0,-3.758168958532612e-11,-3.758168958532612e-11,-11.075594786231575,-1.041494332737038e-09,-1.041494332737038e-09,-0.8474953539797525,-2.7631489866542084e-09,-2.7631489866542084e-09,0.33173942003497103,0.0,70.0,255.0,255.0,255.0
201,10.05,-9.549051612923318e-11,-9.549051612923318e-11,-11.117554643855778,-9.82511783373094e-10,-9.82511783373094e-10,-0.8307944481175511,7.634045898206646e-09,7.634045898206646e-09,0.3359797963634392,0.0,70.0,255.0,255.0,255.0
202,10.100000000000001,-1.3583286792263554e-10,-1.3583286792263554e-10,-11.15867423104333,-2.780897429163733e-10,-2.780897429163733e-10,-0.8138973743434086,2.0176852753825136e-08,2.0176852753825136e-08,0.33970584580700347,0.0,70.0,255.0,255.0,255.0
203,10.15,-1.232994904208705e-10,-1.232994904208705e-10,-11.198944381290119,1.0351734920094195e-09,1.0351734920094195e-09,-0.7968238635368508,2.9136523967922705e-08,2.9136523967922705e-08,0.34315249371257295,0.0,70.0,255.0,255.0,255.0
204,10.200000000000001,-3.231551872169359e-11,-3.231551872169359e-11,-11.238356617397015,2.6355626538758974e-09,2.6355626538758974e-09,-0.7795821249721513,2.8517362735602536e-08,2.8517362735602536e-08,0.3465561130980177,0.0,70.0,255.0,255.0,255.0
205,10.25,1.4025677496671926e-10,1.4025677496671926e-10,-11.276902593787334,3.886909765569673e-09,3.886909765569673e-09,-0.762168252227049,1.0312212407075969e-08,1.0312212407075969e-08,0.3501572669044606,0.0,70.0,255.0,255.0,255.0
206,10.3,3.563754578352737e-10,3.563754578352737e-10,-11.31457344261972,3.6667838945834944e-09,3.6667838945834944e-09,-0.7445663982817052,-2.8490647159420008e-08,-2.8490647159420008e-08,0.3540904790948929,0.0,70.0,255.0,255.0,255.0
207,10.350000000000001,5.069351644250687e-10,5.069351644250687e-10,-11.351359233615504,1.0378450496276723e-09,1.0378450496276723e-09,-0.7267592043175597,-7.530103961411141e-08,-7.530103961411141e-08,0.3582994612891355,0.0,70.0,255.0,255.0,255.0
208,10.4,4.6015996279804096e-10,4.6015996279804096e-10,-11.387249363051476,-3.863320066827647e-09,-3.863320066827647e-09,-0.7087364521527917,-1.087389878042359e-07,-1.087389878042359e-07,0.3626528780035443,0.0,70.0,255.0,255.0,255.0
209,10.450000000000001,1.2060315774230398e-10,1.2060315774230398e-10,-11.422232878830783,-9.836053730795918e-09,-9.836053730795918e-09,-0.6904939165172053,-1.064282466271401e-07,-1.064282466271401e-07,0.36702801054726564,0.0,70.0,255.0,255.0,255.0
210,10.5,-5.234454102815509e-10,-5.234454102815509e-10,-11.456298754703196,-1.4506144729541656e-08,-1.4506144729541656e-08,-0.6720336510980651,-3.848570064164965e-08,-3.848570064164965e-08,0.37129155896753474,0.0,70.0,255.0,255.0,255.0
211,10.55,-1.3300113152118616e-09,-1.3300113152118616e-09,-11.48943624394059,-1.3684623794960883e-08,-1.3684623794960883e-08,-0.6533647606204518,1.0632854273947343e-07,1.0632854273947343e-07,0.37537222665164904,0.0,70.0,255.0,255.0,255.0
212,10.600000000000001,-1.891907789777639e-09,-1.891907789777639e-09,-11.521635230765241,-3.873290455594314e-09,-3.873290455594314e-09,-0.6344964284329002,2.810273057026205e-07,2.810273057026205e-07,0.37933724143748293,0.0,70.0,255.0,255.0,255.0
213,10.65,-1.7173403607712931e-09,-1.7173403607712931e-09,-11.55288588678388,1.441810677530117e-08,1.441810677530117e-08,-0.6154310364767035,4.0581942724902075e-07,4.0581942724902075e-07,0.3833142227097852,0.0,70.0,255.0,255.0,255.0
214,10.700000000000001,-4.500971122475222e-10,-4.500971122475222e-10,-11.583178334412912,3.670865226930776e-08,3.670865226930776e-08,-0.5961650061619217,3.9719562377295763e-07,3.9719562377295763e-07,0.38741893096112534,0.0,70.0,255.0,255.0,255.0
215,10.75,1.9535248661594836e-09,1.9535248661594836e-09,-11.612502387400072,5.413766915259694e-08,5.413766915259694e-08,-0.576689143380591,1.4363059015952274e-07,1.4363059015952274e-07,0.3917724412817236,0.0,70.0,255.0,255.0,255.0
216,10.8,4.963669803012172e-09,4.963669803012172e-09,-11.64084724875097,5.1071711285260036e-08,5.1071711285260036e-08,-0.5569877620337493,-3.968235237984734e-07,-3.968235237984734e-07,0.3964277005430006,0.0,70.0,255.0,255.0,255.0
217,10.850000000000001,7.060695994685488e-09,7.060695994685488e-09,-11.668201163603447,1.4455316772749595e-08,1.4455316772749595e-08,-0.5370463733262909,-1.0488081831963708e-06,-1.0488081831963708e-06,0.40126980140016144,0.0,70.0,255.0,255.0,255.0
218,10.9,6.4092014802871315e-09,6.4092014802871315e-09,-11.6945518860836,-5.3809107034377044e-08,-5.3809107034377044e-08,-0.5168607818937332,-1.514538721191847e-06,-1.514538721191847e-06,0.40609116356087327,0.0,70.0,255.0,255.0,255.0
219,10.950000000000001,1.6797852912477837e-09,1.6797852912477837e-09,-11.71988724179282,-1.3699855534643512e-07,-1.3699855534643512e-07,-0.4964372569702036,-1.4823542484646897e-06,-1.4823542484646897e-06,0.4106902050024175,0.0,70.0,255.0,255.0,255.0
220,11.0,-7.290654054356382e-09,-7.290654054356382e-09,-11.74419561178062,-2.0204453188084603e-07,-2.0204453188084603e-07,-0.47579176139349144,-5.360366599964415e-07,-5.360366599964415e-07,0.4148787225240369,0.0,70.0,255.0,255.0,255.0
221,11.05,-1.8524667896836822e-08,-1.8524667896836822e-08,-11.76746641793217,-1.9060222134607928e-07,-1.9060222134607928e-07,-0.4549493847177999,1.4809655524544193e-06,1.4809655524544193e-06,0.4185693721069583,0.0,70.0,255.0,255.0,255.0
222,11.100000000000001,-2.635087618896431e-08,-2.635087618896431e-08,-11.7896905502524,-5.3947976635404095e-08,-5.3947976635404095e-08,-0.4339348241827956,3.914205427082862e-06,3.914205427082862e-06,0.42186980004998986,0.0,70.0,255.0,255.0,255.0
223,11.15,-2.391946556037723e-08,-2.391946556037723e-08,-11.810859900350449,2.0081832136220698e-07,2.0081832136220698e-07,-0.4127624047128009,5.652335457518369e-06,5.652335457518369e-06,0.4249965542841849,0.0,70.0,255.0,255.0,255.0
224,11.200000000000001,-6.269044052743612e-09,-6.269044052743612e-09,-11.83096679072368,5.112855691164329e-07,5.112855691164329e-07,-0.3914351687543771,5.532221370085805e-06,5.532221370085805e-06,0.4281590835267579,0.0,70.0,255.0,255.0,255.0
225,11.25,2.7209091351266057e-08,2.7209091351266057e-08,-11.850003417225887,7.540404583707875e-07,7.540404583707875e-07,-0.3699464963601251,2.0005160498262407e-06,2.0005160498262407e-06,0.4314886126769224,0.0,70.0,255.0,255.0,255.0
226,11.3,6.913500178433514e-08,6.913500178433514e-08,-11.867961440359693,7.113371740990569e-07,7.113371740990569e-07,-0.3482863074866849,-5.5270386860192096e-06,-5.5270386860192096e-06,0.4350756968085179,0.0,70.0,255.0,255.0,255.0
227,11.350000000000001,9.834280876117176e-08,9.834280876117176e-08,-11.884832047974555,2.0133658976886662e-07,2.0133658976886662e-07,-0.3264389266792733,-1.4608013525135076e-05,-1.4608013525135076e-05,0.4391193433887608,0.0,70.0,255.0,255.0,255.0
228,11.4,8.92686607612218e-08,8.92686607612218e-08,-11.90060533302762,-7.494641784144508e-07,-7.494641784144508e-07,-0.3043743731478088,-2.109480310888162e-05,-2.109480310888162e-05,0.4438925959940221,0.0,70.0,255.0,255.0,255.0
229,11.450000000000001,2.339639091972667e-08,2.339639091972667e-08,-11.915269485289336,-1.9081437211192954e-06,-1.9081437211192954e-06,-0.2820496670798711,-2.0646531231878516e-05,-2.0646531231878516e-05,0.44970133967829895,0.0,70.0,255.0,255.0,255.0
230,11.5,-1.0154571135070777e-07,-1.0154571135070777e-07,-11.928810299735607,-2.8141173016023025e-06,-2.8141173016023025e-06,-0.2594042391799789,-7.46602753930854e-06,-7.46602753930854e-06,0.4571548920365487,0.0,70.0,255.0,255.0,255.0
231,11.55,-2.580153392405036e-07,-2.580153392405036e-07,-11.941209909207334,-2.6547464750501493e-06,-2.6547464750501493e-06,-0.23633417787621624,2.0627189191622395e-05,2.0627189191622395e-05,0.4664141809847422,0.0,70.0,255.0,255.0,255.0
232,11.600000000000001,-3.670203588557227e-07,-3.670203588557227e-07,-11.952443717523229,-7.513983824400628e-07,-7.513983824400628e-07,-0.21276282108150468,5.451784867345747e-05,5.451784867345747e-05,0.47590811777009634,0.0,70.0,255.0,255.0,255.0
233,11.65,-3.3315517748450986e-07,-3.3315517748450986e-07,-11.962486191315485,2.797038392295598e-06,2.797038392295598e-06,-0.1887433660992066,7.872687697800815e-05,7.872687697800815e-05,0.4830586095245337,0.0,70.0,255.0,255.0,255.0
234,11.700000000000001,-8.731651962616289e-08,-8.731651962616289e-08,-11.97131805413315,7.121289315360752e-06,7.121289315360752e-06,-0.1644569601290513,7.705390355742824e-05,7.705390355742824e-05,0.48587994004396506,0.0,70.0,255.0,255.0,255.0
235,11.75,3.789737540515653e-07,3.789737540515653e-07,-11.97893188732839,1.0502428748038422e-05,1.0502428748038422e-05,-0.1401553720948101,2.7863594107407802e-05,2.7863594107407802e-05,0.4840188121869815,0.0,70.0,255.0,255.0,255.0
236,11.8,9.629263551776795e-07,9.629263551776795e-07,-11.98533359134263,9.907648726101533e-06,9.907648726101533e-06,-0.11605507891035316,-7.69817180804704e-05,-7.69817180804704e-05,0.47723606410130515,0.0,70.0,255.0,255.0,255.0
237,11.850000000000001,1.3697386266617188e-06,1.3697386266617188e-06,-11.990537395219425,2.8042569399913828e-06,2.8042569399913828e-06,-0.09243176568467959,-0.00020346338116869467,-0.00020346338116869467,0.46270683354769915,0.0,70.0,255.0,255.0,255.0
238,11.9,1.2433520491768178e-06,1.2433520491768178e-06,-11.994576767911099,-1.0438689390767936e-05,-1.0438689390767936e-05,-0.06978439555558325,-0.00029381270480315086,-0.00029381270480315086,0.43650662558132325,0.0,70.0,255.0,255.0,255.0
239,11.950000000000001,3.2586968758492524e-07,3.2586968758492524e-07,-11.997515834774983,-2.6577013540323705e-05,-2.6577013540323705e-05,-0.048781103126547265,-0.0002875690829978345,-0.0002875690829978345,0.3960391332455515,0.0,70.0,255.0,255.0,255.0
240,12.0,-1.414349304855553e-06,-1.414349304855553e-06,-11.999454878223753,-3.919559769055139e-05,-3.919559769055139e-05,-0.030180482231028094,-0.00010398834889032292,-0.00010398834889032292,0.33928081492806683,0.0,70.0,255.0,255.0,255.0
241,12.05,-3.5936900814702137e-06,-3.5936900814702137e-06,-12.000533882998086,-3.6975848429356e-05,-3.6975848429356e-05,-0.014853021633740582,0.0002872996831302592,0.0002872996831302592,0.26629153930102234,0.0,70.0,255.0,255.0,255.0
242,12.100000000000001,-5.111934147791153e-06,-5.111934147791153e-06,-12.000940180387127,-1.0465629377525467e-05,-1.0465629377525467e-05,-0.00355132830092586,0.0007593356760013213,0.0007593356760013213,0.18311182076473642,0.0,70.0,255.0,255.0,255.0
243,12.15,-4.6402530192227606e-06,-4.6402530192227606e-06,-12.000889015828179,3.895771917077613e-05,3.895771917077613e-05,0.0034581604427330603,0.001096523942234595,0.001096523942234595,0.10028216087594188,0.0,70.0,255.0,255.0,255.0
244,12.200000000000001,-1.2161622307135396e-06,-1.2161622307135396e-06,-12.000594364342854,9.918676484593406e-05,9.918676484593406e-05,0.006476887786668328,0.00107322242843391,0.00107322242843391,0.02883084632046007,0.0,70.0,255.0,255.0,255.0
245,12.25,5.278423465370646e-06,5.278423465370646e-06,-12.000241327049512,0.00014627996201416714,0.00014627996201416714,0.006341245074779067,0.00038808980145388366,0.00038808980145388366,-0.021436710592581676,0.0,70.0,255.0,255.0,255.0
246,12.3,1.3411833970703176e-05,1.3411833970703176e-05,-11.999960239835376,0.00013799574499132243,0.00013799574499132243,0.004333216727410161,-0.001072217014440566,-0.001072217014440566,-0.04574208144276781,0.0,70.0,255.0,255.0,255.0
247,12.350000000000001,1.907799796450289e-05,1.907799796450289e-05,-11.99980800537677,3.905826057011054e-05,3.905826057011054e-05,0.001767036930502286,-0.00283387932283659,-0.00283387932283659,-0.04719476928745081,0.0,70.0,255.0,255.0,255.0
248,12.4,1.731766002771423e-05,1.731766002771423e-05,-11.999783536142326,-0.0001453921872923366,-0.0001453921872923366,-0.00038626020133492034,-0.0040922830641352305,-0.0040922830641352305,-0.033270140882635246,0.0,70.0,255.0,255.0,255.0
249,12.450000000000001,4.5387792352692275e-06,4.5387792352692275e-06,-11.999846631396904,-0.0003701700458434125,-0.0003701700458434125,-0.0015599771577612387,-0.0041798660852832605,-0.0041798660852832605,-0.012867413633088631,0.0,70.0,255.0,255.0,255.0
250,12.5,-1.9699344556627027e-05,-1.9699344556627027e-05,-11.999939533858102,-0.0005633787958206627,-0.0005633787958206627,-0.0016730015646437835,-0.0028010981296524946,-0.0028010981296524946,0.004237589213929027,0.0,70.0,255.0,255.0,255.0
251,12.55,-5.1799100346797044e-05,-5.1799100346797044e-05,-12.000013931553369,-0.000650279858808662,-0.000650279858808662,-0.001136218236368336,0.00020035625342005236,0.00020035625342005236,0.012267275981692194,0.0,70.0,255.0,255.0,255.0
252,12.600000000000001,-8.472733043749322e-05,-8.472733043749322e-05,-12.000053155681739,-0.0005433431704786575,-0.0005433431704786575,-0.0004462739664745641,0.005330121009284815,0.005330121009284815,0.012561055920201625,0.0,70.0,255.0,255.0,255.0
253,12.65,-0.0001061334173946628,-0.0001061334173946628,-12.000058558950016,-0.00011726775788018043,-0.00011726775788018043,0.00011988735565182651,0.013216850738549567,0.013216850738549567,0.008698449273403241,0.0,70.0,255.0,255.0,255.0
254,12.700000000000001,-9.645410622551127e-05,-9.645410622551127e-05,-12.000041166946174,0.0007783419033762992,0.0007783419033762992,0.00042357096086576007,0.024190764057222418,0.024190764057222418,0.0032911159042470217,0.0,70.0,255.0,255.0,255.0
255,12.75,-2.8299227057032885e-05,-2.8299227057032885e-05,-12.00001620185393,0.0023018086478420615,0.0023018086478420615,0.0004489989460765287,0.03847877357962758,0.03847877357962758,-0.0011912220202248136,0.0,70.0,255.0,255.0,255.0
256,12.8,0.0001337267585586949,0.0001337267585586949,-11.999996267051566,0.004626219261339058,0.004626219261339058,0.0003044487588432787,0.055945570555540995,0.055945570555540995,-0.0032942019714710113,0.0,70.0,255.0,255.0,255.0
257,12.850000000000001,0.000434322699076873,0.000434322699076873,-11.999985756978045,0.007896365703396161,0.007896365703396161,0.00011957874892942755,0.07526220647451223,0.07526220647451223,-0.003365724789716751,0.0,70.0,255.0,255.0,255.0
258,12.9,0.0009233633288983112,0.0009233633288983112,-11.999984309176673,0.012152439908790282,0.012152439908790282,-3.212372012839637e-05,0.09415746752252864,0.09415746752252864,-0.0023307424584118053,0.0,70.0,255.0,255.0,255.0
259,12.950000000000001,0.0016495666899559013,0.0016495666899559013,-11.999988969350058,0.017312112455649026,0.017312112455649026,-0.00011349549691175298,0.11028039959998759,0.11028039959998759,-0.0008818518486108928,0.0,70.0,255.0,255.0,255.0
260,13.0,0.0026545745744632142,0.0026545745744632142,-11.999995658726364,0.02318047986878904,0.02318047986878904,-0.00012030890498948565,0.12160581733095653,0.12160581733095653,0.000319186978536834,0.0,70.0,255.0,255.0,255.0
261,13.05,0.003967614676834806,0.003967614676834806,-12.000001000240557,0.02947269418874468,0.02947269418874468,-8.157679905806958e-05,0.12716402819108702,0.12716402819108702,0.0008826787578186668,0.0,70.0,255.0,255.0,255.0
262,13.100000000000001,0.0056018439933376825,0.0056018439933376825,-12.00000381640627,0.035896882687897744,0.035896882687897744,-3.2041029207618976e-05,0.12756119295281496,0.12756119295281496,0.0009018432391982856,0.0,70.0,255.0,255.0,255.0
263,13.15,0.0075573029456245805,0.0075573029456245805,-12.000004204343478,0.04222881348402618,0.04222881348402618,8.607524861758975e-06,0.12431495749302114,0.12431495749302114,0.0006245205595334369,0.0,70.0,255.0,255.0,255.0
264,13.200000000000001,0.0098247253417403,0.0098247253417403,-12.000002955653784,0.04832837843719986,0.04832837843719986,3.0411026745724712e-05,0.11931570281089696,0.11931570281089696,0.00023629149072945665,0.0,70.0,255.0,255.0,255.0
265,13.25,0.012390140789344566,0.012390140789344566,-12.000001163240803,0.05416038376511587,0.05416038376511587,3.223667393470464e-05,0.11468322516181087,0.11468322516181087,-8.552589338961525e-05,0.0,70.0,255.0,255.0,255.0
266,13.3,0.015240763718251888,0.015240763718251888,-11.99999973198639,0.059796700953380945,0.059796700953380945,2.1858437406763187e-05,0.11169407425587134,0.11169407425587134,-0.00023651305998129146,0.0,70.0,255.0,255.0,255.0
267,13.350000000000001,0.01836981088468266,0.01836981088468266,-11.999998977397063,0.06532979119070301,0.06532979119070301,8.585367936575494e-06,0.1101372175184346,0.1101372175184346,-0.00024164816725402716,0.0,70.0,255.0,255.0,255.0
268,13.4,0.02177374283732219,0.02177374283732219,-11.999998873449597,0.0708104227052244,0.0708104227052244,-2.3063793186395287e-06,0.10938046474315455,0.10938046474315455,-0.00016733978007721362,0.0,70.0,255.0,255.0,255.0
269,13.450000000000001,0.0254508531552051,0.0254508531552051,-11.999999208034994,0.07626783766501846,0.07626783766501846,-8.148610071145868e-06,0.10903338589302244,0.10903338589302244,-6.331411430693379e-05,0.0,70.0,255.0,255.0,255.0
270,13.5,0.029400526603824036,0.029400526603824036,-11.999999688310604,0.08171376129452665,0.08171376129452665,-8.637790749332908e-06,0.10873466197516973,0.10873466197516973,2.2916593955812914e-05,0.0,70.0,255.0,255.0,255.0
271,13.55,0.033622229284657766,0.033622229284657766,-12.00000007181407,0.08714130386253544,0.08714130386253544,-5.856950675564576e-06,0.1082608869066394,0.1082608869066394,6.337348370522022e-05,0.0,70.0,255.0,255.0,255.0
272,13.600000000000001,0.03811465699007758,0.03811465699007758,-12.000000274005671,0.09253984998519059,0.09253984998519059,-2.300442378810885e-06,0.10764266424618876,0.10764266424618876,6.47494315941799e-05,0.0,70.0,255.0,255.0,255.0
273,13.65,0.042876214283176825,0.042876214283176825,-12.000000301858307,0.09790557028715431,0.09790557028715431,6.179924838534134e-07,0.1069721345833198,0.1069721345833198,4.4838558288518016e-05,0.0,70.0,255.0,255.0,255.0
274,13.700000000000001,0.04790521401879301,0.04790521401879301,-12.000000212206423,0.10323706344352257,0.10323706344352257,2.1834134500409164e-06,0.10628315454941292,0.10628315454941292,1.696496561010008e-05,0.0,70.0,255.0,255.0,255.0
275,13.75,0.05319992062752908,0.05319992062752908,-12.000000083516962,0.1085338857420956,0.1085338857420956,2.3144890448634214e-06,0.10559416423352869,0.10559416423352869,-6.140482611272091e-06,0.0,70.0,255.0,255.0,255.0
276,13.8,0.05875860259300257,0.05875860259300257,-11.999999980757519,0.11379647986687544,0.11379647986687544,1.5693651889137072e-06,0.10491683033202193,0.10491683033202193,-1.698087341850396e-05,0.0,70.0,255.0,255.0,255.0
277,13.850000000000001,0.06457956861421663,0.06457956861421663,-11.999999926580443,0.1190255687752978,0.1190255687752978,6.164017030130253e-07,0.1042539902986972,0.1042539902986972,-1.7349557701606955e-05,0.0,70.0,255.0,255.0,255.0
278,13.9,0.07066115947053235,0.07066115947053235,-11.999999919117348,0.12422187889674516,0.12422187889674516,-1.6559058124698822e-07,0.10360745380003089,0.10360745380003089,-1.2014456096665072e-05,0.0,70.0,255.0,255.0,255.0
279,13.950000000000001,0.07700175650389114,0.07700175650389114,-11.999999943139501,0.12938631415530089,0.12938631415530089,-5.850439066534818e-07,0.10298159497691556,0.10298159497691556,-4.5457486663735835e-06,0.0,70.0,255.0,255.0,255.0
280,14.0,0.08359979088606244,0.08359979088606244,-11.999999977621739,0.13452003839443671,0.13452003839443671,-6.201654478843466e-07,0.10238462514663565,0.10238462514663565,1.6453377327252383e-06,0.0,70.0,255.0,255.0,255.0
281,14.05,0.09045376034333481,0.09045376034333481,-12.000000005156046,0.13962477666996445,0.13962477666996445,-4.20510133380958e-07,0.10181836519185805,0.10181836519185805,4.550011212245408e-06,0.0,70.0,255.0,255.0,255.0
282,14.100000000000001,0.09756226855305888,0.09756226855305888,-12.000000019672752,0.14470187491362252,0.14470187491362252,-1.6516432665980574e-07,0.1012613745590571,0.1012613745590571,4.6487999227906585e-06,0.0,70.0,255.0,255.0,255.0
283,14.15,0.10492394783469706,0.10492394783469706,-12.000000021672479,0.14975091412587016,0.14975091412587016,4.436985889810785e-08,0.10067805021655857,0.10067805021655857,3.2192634336070114e-06,0.0,70.0,255.0,255.0,255.0
284,14.200000000000001,0.1125373599656459,0.1125373599656459,-12.000000015235766,0.15476967993527838,0.15476967993527838,1.567620167008954e-07,0.1000371788296206,0.1000371788296206,1.2180299435726738e-06,0.0,70.0,255.0,255.0,255.0
285,14.25,0.1204009158282249,0.1204009158282249,-12.000000005996277,0.15975463200883222,0.15975463200883222,1.6617285325537523e-07,0.0993193631519243,0.0993193631519243,-4.408667209077066e-07,0.0,70.0,255.0,255.0,255.0
286,14.3,0.12851282316652912,0.12851282316652912,-11.999999998618481,0.1647016162504708,0.1647016162504708,1.1267534461012474e-07,0.09851590936676424,0.09851590936676424,-1.2191721410204082e-06,0.0,70.0,255.0,255.0,255.0
287,14.350000000000001,0.13687107745327198,0.13687107745327198,-11.999999994728743,0.16960622294550864,0.16960622294550864,4.4255639153334414e-08,0.09762228302689357,0.09762228302689357,-1.2456418119199952e-06,0.0,70.0,255.0,255.0,255.0
288,14.4,0.14547344546108,0.14547344546108,-11.999999994192917,0.17446384455316016,0.17446384455316016,-1.1888836581874784e-08,0.09663941293280298,0.09663941293280298,-8.625990588484456e-07,0.0,70.0,255.0,255.0,255.0
289,14.450000000000001,0.154317461908588,0.154317461908588,-11.999999995917626,0.17927016423878894,0.17927016423878894,-4.200426673151014e-08,0.09557589017077928,0.09557589017077928,-3.2637057501005984e-07,0.0,70.0,255.0,255.0,255.0
290,14.5,0.16340046188495888,0.16340046188495888,-11.999999998393344,0.1840214335702381,0.1840214335702381,-4.452589408288077e-08,0.09443395954165656,0.09443395954165656,1.1813003908400788e-07,0.0,70.0,255.0,255.0,255.0
291,14.55,0.1727196052656118,0.1727196052656118,-12.000000000370216,0.1887135601929546,0.1887135601929546,-3.0191262823109355e-08,0.0932241978073095,0.0932241978073095,3.266762860221206e-07,0.0,70.0,255.0,255.0,255.0
292,14.600000000000001,0.18227181790425434,0.18227181790425434,-12.00000000141247,0.19334385335096904,0.19334385335096904,-1.1858265480668706e-08,0.09200856093249388,0.09200856093249388,3.3376892361047794e-07,0.0,70.0,255.0,255.0,255.0
293,14.65,0.1920539906007087,0.1920539906007087,-12.000000001556042,0.197914416286204,0.197914416286204,3.185629537938439e-09,0.09088606961399348,0.09088606961399348,2.3113280178677087e-07,0.0,70.0,255.0,255.0,255.0
294,14.700000000000001,0.20206325953287474,0.20206325953287474,-12.000000001093907,0.2024324603123684,0.2024324603123684,1.1255014698008381e-08,0.08995203438000865,0.08995203438000865,8.745040247504221e-08,0.0,70.0,255.0,255.0,255.0
295,14.75,0.21229723663194555,0.21229723663194555,-12.000000000430541,0.20690961972420485,0.20690961972420485,1.193066978544266e-08,0.08929277070937325,0.08929277070937325,-3.1653080156957e-08,0.0,70.0,255.0,255.0,255.0
296,14.8,0.22275422150529522,0.22275422150529522,-11.99999999990084,0.21136173738330571,0.21136173738330571,8.08970668231268e-09,0.0889416117583447,0.0889416117583447,-8.753264779670644e-08,0.0,70.0,255.0,255.0,255.0
297,14.850000000000001,0.23343341037027612,0.23343341037027612,-11.99999999962157,0.21580378090003932,0.21580378090003932,3.177405005772016e-09,0.0888199301196324,0.0888199301196324,-8.943281670781289e-08,0.0,70.0,255.0,255.0,255.0
298,14.9,0.24433459959529916,0.24433459959529916,-11.9999999995831,0.22024373039526896,0.22024373039526896,-8.535749884686084e-10,0.08877817341307326,0.08877817341307326,-6.193161539158609e-08,0.0,70.0,255.0,255.0,255.0
299,14.950000000000001,0.255457783409803,0.255457783409803,-11.999999999706928,0.22468159824134665,0.22468159824134665,-3.0157565333865932e-09,0.08865699795021775,0.08865699795021775,-2.3432278339896584e-08,0.0,70.0,255.0,255.0,255.0
300,15.0,0.2668027594194338,0.2668027594194338,-11.999999999884675,0.22910943019029073,0.22910943019029073,-3.1968028224582667e-09,0.08830693897278474,0.08830693897278474,8.481215729716496e-09,0.0,70.0,255.0,255.0,255.0
301,15.05,0.2783687264288321,0.2783687264288321,-12.000000000026608,0.23351229213862512,0.23351229213862512,-2.1676349604149436e-09,0.08764935515930827,0.08764935515930827,2.3453949893337267e-08,0.0,70.0,255.0,255.0,255.0
302,15.100000000000001,0.29015398863329633,0.29015398863329633,-12.000000000101439,0.23787436570622156,0.23787436570622156,-8.5140783312454e-10,0.08671712651445174,0.08671712651445174,2.396340903487726e-08,0.0,70.0,255.0,255.0,255.0
303,15.15,0.30215616299945425,0.30215616299945425,-12.000000000111749,0.2421840047900703,0.2421840047900703,2.2870594307278225e-10,0.0855958288083214,0.0855958288083214,1.659490322936108e-08,0.0,70.0,255.0,255.0,255.0
304,15.200000000000001,0.31437238911230336,0.31437238911230336,-12.000000000078568,0.2464339485870537,0.2464339485870537,8.080824898115679e-10,0.08437997381907092,0.08437997381907092,6.278710884544125e-09,0.0,70.0,255.0,255.0,255.0
305,15.25,0.3267995578581596,0.3267995578581596,-12.00000000003094,0.2506220021719774,0.2506220021719774,8.565770315271948e-10,0.08316749204742013,0.08316749204742013,-2.2728485760126205e-09,0.0,70.0,255.0,255.0,255.0
306,15.3,0.3394345893295011,0.3394345893295011,-11.99999999999291,0.2547506977917957,0.2547506977917957,5.807976322103059e-10,0.08201994196343487,0.08201994196343487,-6.284395226430206e-09,0.0,70.0,255.0,255.0,255.0
307,15.350000000000001,0.3522746276373392,0.3522746276373392,-11.99999999997286,0.2588239963683209,0.2588239963683209,2.2813750888417417e-10,0.08094969902081584,0.08094969902081584,-6.420641796012205e-09,0.0,70.0,255.0,255.0,255.0
308,15.4,0.3653169889663332,0.3653169889663332,-11.999999999970097,0.2628456676938773,0.2628456676938773,-6.126654739091464e-11,0.07996205447718951,0.07996205447718951,-4.446576440386707e-09,0.0,70.0,255.0,255.0,255.0
309,15.450000000000001,0.3785591944067269,0.3785591944067269,-11.999999999978987,0.2668202018160398,0.2668202018160398,-2.1652013515449653e-10,0.07906879441912373,0.07906879441912373,-1.6823875625959772e-09,0.0,70.0,255.0,255.0,255.0
310,15.5,0.39199900914793717,0.39199900914793717,-11.999999999991749,0.27075254713578967,0.27075254713578967,-2.2950530365051236e-10,0.07827512080949561,0.07827512080949561,6.089351245464059e-10,0.0,70.0,255.0,255.0,255.0
311,15.55,0.4056344491203059,0.4056344491203059,-12.000000000001938,0.2746477138969894,0.2746477138969894,-1.5562662269985594e-10,0.07757810309422797,0.07757810309422797,1.6834533766996174e-09,0.0,70.0,255.0,255.0,255.0
312,15.600000000000001,0.4194637805376361,0.4194637805376361,-12.000000000007311,0.27851035744521246,0.27851035744521246,-6.115996598055062e-11,0.07696230584061658,0.07696230584061658,1.7205792346430826e-09,0.0,70.0,255.0,255.0,255.0
313,15.65,0.43348548486482713,0.43348548486482713,-12.000000000008054,0.28234394448105105,0.28234394448105105,1.6431300764452317e-11,0.07639688568382152,0.07639688568382152,1.192113074921508e-09,0.0,70.0,255.0,255.0,255.0
314,15.700000000000001,0.4476981749857412,0.4476981749857412,-12.000000000005668,0.2861500460135946,0.2861500460135946,5.8051341511600185e-11,0.07583864803819007,0.07583864803819007,4.5066173015584354e-10,0.0,70.0,255.0,255.0,255.0
315,15.75,0.4621004894661866,0.4621004894661866,-12.000000000002249,0.28992780928487005,0.28992780928487005,6.149747378003667e-11,0.07523598741850379,0.07523598741850379,-1.6360246490876307e-10,0.0,70.0,255.0,255.0,255.0
316,15.8,0.4766909559142282,0.4766909559142282,-11.999999999999519,0.293673644755445,0.293673644755445,4.169109502072388e-11,0.07456144519346064,0.07456144519346064,-4.511946372076636e-10,0.0,70.0,255.0,255.0,255.0
317,15.850000000000001,0.4914678539417311,0.4914678539417311,-11.99999999999808,0.2973839538042161,0.2973839538042161,1.637801005927031e-11,0.07384201001777169,0.07384201001777169,-4.60964599824365e-10,0.0,70.0,255.0,255.0,255.0
318,15.9,0.5064293512946498,0.5064293512946498,-11.99999999999788,0.30105784575722216,0.30105784575722216,-4.405364961712621e-12,0.07312863122575508,0.07312863122575508,-3.19211324040225e-10,0.0,70.0,255.0,255.0,255.0
319,15.950000000000001,0.5215736385174533,0.5215736385174533,-11.99999999999852,0.3046968169267916,0.3046968169267916,-1.554312234475219e-11,0.07247041296183365,0.07247041296183365,-1.2079226507921703e-10,0.0,70.0,255.0,255.0,255.0
320,16.0,0.536899032987329,0.536899032987329,-11.999999999999435,0.30830488705340553,0.30830488705340553,-1.6484591469634324e-11,0.07192890154438247,0.07192890154438247,4.3520742565306136e-11,0.0,70.0,255.0,255.0,255.0
321,16.05,0.5524041272227939,0.5524041272227939,-12.000000000000169,0.31188970708122987,0.31188970708122987,-1.1191048088221578e-11,0.07152940284524956,0.07152940284524956,1.2096990076315706e-10,0.0,70.0,255.0,255.0,255.0
322,16.1,0.568088003695452,0.568088003695452,-12.000000000000554,0.3154578273379305,0.3154578273379305,-4.387601393318619e-12,0.0711896540884549,0.0711896540884549,1.2381207170619746e-10,0.0,70.0,255.0,255.0,255.0
323,16.150000000000002,0.5839499099565869,0.5839499099565869,-12.000000000000608,0.31900867249007536,0.31900867249007536,1.1901590823981678e-12,0.07076858941315045,0.07076858941315045,8.562039965909207e-11,0.0,70.0,255.0,255.0,255.0
324,16.2,0.5999888709444595,0.5999888709444595,-12.000000000000435,0.32253468627924553,0.32253468627924553,4.1744385725905886e-12,0.07013312668777694,0.07013312668777694,3.2152058793144533e-11,0.0,70.0,255.0,255.0,255.0
325,16.25,0.6162033785845115,0.6162033785845115,-12.00000000000019,0.32602198515885306,0.32602198515885306,4.405364961712621e-12,0.06915246234791006,0.06915246234791006,-1.1901590823981678e-11,0.0,70.0,255.0,255.0,255.0
326,16.3,0.6325910694603448,0.6325910694603448,-11.999999999999995,0.32944993251403654,0.32944993251403654,2.9842794901924208e-12,0.06777334435794646,0.06777334435794646,-3.232969447708456e-11,0.0,70.0,255.0,255.0,255.0
327,16.35,0.6491483718359151,0.6491483718359151,-11.999999999999892,0.3327993195946477,0.3327993195946477,1.1723955140041653e-12,0.06612291675213156,0.06612291675213156,-3.304023721284466e-11,0.0,70.0,255.0,255.0,255.0
328,16.400000000000002,0.6658710014198096,0.6658710014198096,-11.999999999999877,0.3360622241892497,0.3360622241892497,-3.197442310920451e-13,0.06443514631986336,0.06443514631986336,-2.291500322826323e-11,0.0,70.0,255.0,255.0,255.0
329,16.45,0.6827545942548401,0.6827545942548401,-11.999999999999924,0.33924283422663404,0.33924283422663404,-1.1191048088221578e-12,0.0629493413591975,0.0629493413591975,-8.526512829121202e-12,0.0,70.0,255.0,255.0,255.0
330,16.5,0.699795284842473,0.699795284842473,-11.99999999999999,0.34235715832516944,0.34235715832516944,-1.1723955140041653e-12,0.06189723973976102,0.06189723973976102,3.197442310920451e-12,0.0,70.0,255.0,255.0,255.0
331,16.55,0.716990310087357,0.716990310087357,-12.00000000000004,0.34543255820061014,0.34543255820061014,-7.993605777301127e-13,0.061391019256784585,0.061391019256784585,8.526512829121202e-12,0.0,70.0,255.0,255.0,255.0
332,16.6,0.734338540662534,0.734338540662534,-12.00000000000007,0.3484962602508479,0.3484962602508479,-3.197442310920451e-13,0.06131149941617231,0.06131149941617231,8.881784197001252e-12,0.0,70.0,255.0,255.0,255.0
333,16.650000000000002,0.7518399361124418,0.7518399361124418,-12.000000000000073,0.35156370814222737,0.35156370814222737,8.881784197001252e-14,0.06141716563390354,0.06141716563390354,6.217248937900877e-12,0.0,70.0,255.0,255.0,255.0
334,16.7,0.7694949114767567,0.7694949114767567,-12.00000000000006,0.35463797681423825,0.35463797681423825,3.019806626980426e-13,0.061456733982390155,0.061456733982390155,2.3092638912203256e-12,0.0,70.0,255.0,255.0,255.0
335,16.75,0.7873037337938656,0.7873037337938656,-12.000000000000043,0.3577093815404664,0.3577093815404664,3.197442310920451e-13,0.061178578692788754,0.061178578692788754,-8.881784197001252e-13,0.0,70.0,255.0,255.0,255.0
336,16.8,0.8052658496308034,0.8052658496308034,-12.000000000000028,0.36075583468351713,0.36075583468351713,2.1316282072803006e-13,0.06044980472222905,0.06044980472222905,-2.3092638912203256e-12,0.0,70.0,255.0,255.0,255.0
337,16.85,0.8233793172622174,0.8233793172622174,-12.000000000000021,0.3637543620126893,0.3637543620126893,8.881784197001252e-14,0.059357425909767336,0.059357425909767336,-2.1316282072803006e-12,0.0,70.0,255.0,255.0,255.0
338,16.900000000000002,0.8416412858320723,0.8416412858320723,-12.00000000000002,0.36669157727449386,0.36669157727449386,0.0,0.05808901165742508,0.05808901165742508,-1.7763568394002505e-12,0.0,70.0,255.0,255.0,255.0
339,16.95,0.8600484749896667,0.8600484749896667,-12.000000000000021,0.3695632631784318,0.3695632631784318,-8.881784197001252e-14,0.05683080895818593,0.05683080895818593,-1.0658141036401503e-12,0.0,70.0,255.0,255.0,255.0
340,17.0,0.8785976121499155,0.8785976121499155,-12.000000000000028,0.37237465817031246,0.37237465817031246,-1.0658141036401503e-13,0.05577240819288898,0.05577240819288898,1.7763568394002505e-13,0.0,70.0,255.0,255.0,255.0
341,17.05,0.897285940806698,0.897285940806698,-12.000000000000032,0.3751405039977207,0.3751405039977207,-7.105427357601002e-14,0.055015822460291464,0.055015822460291464,8.881784197001252e-13,0.0,70.0,255.0,255.0,255.0
342,17.1,0.9161116625496876,0.9161116625496876,-12.000000000000036,0.3778762404163416,0.3778762404163416,-1.7763568394002505e-14,0.05449516058126935,0.05449516058126935,8.881784197001252e-13,0.0,70.0,255.0,255.0,255.0
343,17.150000000000002,0.9350735648483322,0.9350735648483322,-12.000000000000034,0.38059002005584763,0.38059002005584763,1.7763568394002505e-14,0.05407126326111289,0.05407126326111289,5.329070518200751e-13,0.0,70.0,255.0,255.0,255.0
344,17.2,0.9541706645552723,0.9541706645552723,-12.000000000000034,0.3832833667424529,0.3832833667424529,3.552713678800501e-14,0.05361294393771976,0.05361294393771976,1.7763568394002505e-13,0.0,70.0,255.0,255.0,255.0
345,17.25,0.9734019015225774,0.9734019015225774,-12.00000000000003,0.3859513144496196,0.3859513144496196,3.552713678800501e-14,0.05299183515548034,0.05299183515548034,-3.552713678800501e-13,0.0,70.0,255.0,255.0,255.0
346,17.3,0.9927657960002343,0.9927657960002343,-12.00000000000003,0.3885825502580009,0.3885825502580009,0.0,0.05214033200995338,0.05214033200995338,-3.552713678800501e-13,0.0,70.0,255.0,255.0,255.0
347,17.35,1.0122601565483775,1.0122601565483775,-12.00000000000003,0.39116534765061495,0.39116534765061495,0.0,0.051104635727949876,0.051104635727949876,0.0,0.0,70.0,255.0,255.0,255.0
348,17.400000000000002,1.0318823307652958,1.0318823307652958,-12.00000000000003,0.3936930138307959,0.3936930138307959,0.0,0.04998323133560412,0.04998323133560412,0.0,0.0,70.0,255.0,255.0,255.0
349,17.45,1.0516294579314571,1.0516294579314571,-12.00000000000003,0.39616367078417536,0.39616367078417536,0.0,0.04887070200414456,0.04887070200414456,0.0,0.0,70.0,255.0,255.0,255.0
350,17.5,1.0714986978437133,1.0714986978437133,-12.00000000000003,0.39858008403121037,0.39858008403121037,0.0,0.047852232536893524,0.047852232536893524,0.0,0.0,70.0,255.0,255.0,255.0
351,17.55,1.0914874663345782,1.0914874663345782,-12.00000000000003,0.4009488940378647,0.4009488940378647,0.0,0.04697613621311714,0.04697613621311714,-1.7763568394002505e-13,0.0,70.0,255.0,255.0,255.0
352,17.6,1.1115935872474998,1.1115935872474998,-12.00000000000003,0.4032776976525221,0.4032776976525221,-1.7763568394002505e-14,0.04624359254457033,0.04624359254457033,0.0,0.0,70.0,255.0,255.0,255.0
353,17.650000000000002,1.1318152360998304,1.1318152360998304,-12.000000000000032,0.40557325329232174,0.40557325329232174,0.0,0.0456385153594141,0.0456385153594141,3.552713678800501e-13,0.0,70.0,255.0,255.0,255.0
354,17.7,1.152150912576732,1.152150912576732,-12.00000000000003,0.4078415491884635,0.4078415491884635,1.7763568394002505e-14,0.04514424804544781,0.04514424804544781,0.0,0.0,70.0,255.0,255.0,255.0
355,17.75,1.1725993910186767,1.1725993910186767,-12.00000000000003,0.4100876780968665,0.4100876780968665,0.0,0.044755225372838936,0.044755225372838936,-1.7763568394002505e-13,0.0,70.0,255.0,255.0,255.0
356,17.8,1.1931596803864186,1.1931596803864186,-12.00000000000003,0.4123170717257474,0.4123170717257474,0.0,0.044455635958096096,0.044455635958096096,0.0,0.0,70.0,255.0,255.0,255.0
357,17.85,1.2138310981912515,1.2138310981912515,-12.00000000000003,0.41453324169267614,0.41453324169267614,0.0,0.0441619264947235,0.0441619264947235,0.0,0.0,70.0,255.0,255.0,255.0
358,17.900000000000002,1.2346130045556862,1.2346130045556862,-12.00000000000003,0.41673326437521974,0.41673326437521974,0.0,0.04374093566519299,0.04374093566519299,0.0,0.0,70.0,255.0,255.0,255.0
359,17.95,1.2555044246287734,1.2555044246287734,-12.00000000000003,0.41890733525919543,0.41890733525919543,0.0,0.04305953192118572,0.04305953192118572,0.0,0.0,70.0,255.0,255.0,255.0
360,18.0,1.2765037380816058,1.2765037380816058,-12.00000000000003,0.4210392175673383,0.4210392175673383,0.0,0.041978893943595,0.041978893943595,0.0,0.0,70.0,255.0,255.0,255.0
361,18.05,1.2976083463855073,1.2976083463855073,-12.00000000000003,0.42310522465355493,0.42310522465355493,0.0,0.04044700760015285,0.04044700760015285,0.0,0.0,70.0,255.0,255.0,255.0
362,18.1,1.3188142605469613,1.3188142605469613,-12.00000000000003,0.4250839183273536,0.4250839183273536,0.0,0.03863224460005643,0.03863224460005643,0.0,0.0,70.0,255.0,255.0,255.0
363,18.150000000000002,1.3401167382182426,1.3401167382182426,-12.00000000000003,0.4269684491135606,0.4269684491135606,0.0,0.036835877178265086,0.036835877178265086,0.0,0.0,70.0,255.0,255.0,255.0
364,18.2,1.3615111054583173,1.3615111054583173,-12.00000000000003,0.4287675060451801,0.4287675060451801,0.0,0.03536317205552475,0.03536317205552475,0.0,0.0,70.0,255.0,255.0,255.0
365,18.25,1.3829934888227606,1.3829934888227606,-12.00000000000003,0.43050476631911305,0.43050476631911305,0.0,0.03451316155635986,0.03451316155635986,0.0,0.0,70.0,255.0,255.0,255.0
366,18.3,1.4045615820902286,1.4045615820902286,-12.00000000000003,0.4322188222008161,0.4322188222008161,0.0,0.03442393270858268,0.03442393270858268,0.0,0.0,70.0,255.0,255.0,255.0
367,18.35,1.4262153710428422,1.4262153710428422,-12.00000000000003,0.4339471595899713,0.4339471595899713,0.0,0.03490014405627129,0.03490014405627129,0.0,0.0,70.0,255.0,255.0,255.0
368,18.400000000000002,1.4479562980492258,1.4479562980492258,-12.00000000000003,0.4357088366064432,0.4357088366064432,0.0,0.03556282834942248,0.03556282834942248,0.0,0.0,70.0,255.0,255.0,255.0
369,18.45,1.4697862547034866,1.4697862547034866,-12.00000000000003,0.43750344242491357,0.43750344242491357,0.0,0.03602223207122002,0.03602223207117561,0.0,0.0,70.0,255.0,255.0,255.0
370,18.5,1.4917066422917171,1.4917066422917171,-12.00000000000003,0.4393110598135652,0.4393110598135608,0.0,0.035896478478725236,0.035896478478725236,0.0,0.0,70.0,255.0,255.0,255.0
371,18.55,1.513717360684843,1.5137173606848426,-12.00000000000003,0.4410930902727861,0.4410930902727861,0.0,0.03499068813885842,0.034990688138947235,0.0,0.0,70.0,255.0,255.0,255.0
372,18.6,1.5358159513189957,1.5358159513189957,-12.00000000000003,0.44281012862745106,0.4428101286274555,0.0,0.033457995025654164,0.033457995025654164,0.0,0.0,70.0,255.0,255.0,255.0
373,18.650000000000002,1.5579983735475882,1.5579983735475882,-12.00000000000003,0.4444388897753515,0.4444388897753515,0.0,0.031621993573294205,0.031621993573249796,0.0,0.0,70.0,255.0,255.0,255.0
374,18.7,1.5802598402965309,1.5802598402965309,-12.00000000000003,0.4459723279847805,0.4459723279847805,0.0,0.029814473086409166,0.029814473086409166,0.0,0.0,70.0,255.0,255.0,255.0
375,18.75,1.6025956063460662,1.6025956063460662,-12.00000000000003,0.4474203370839924,0.4474203370839924,0.0,0.02837290588058039,0.02837290588058039,0.0,0.0,70.0,255.0,255.0,255.0
376,18.8,1.6250018740049301,1.6250018740049301,-12.00000000000003,0.4488096185728385,0.4488096185728385,0.0,0.02747886252121301,0.027478862521235214,0.0,0.0,70.0,255.0,255.0,255.0
377,18.85,1.64747656820335,1.64747656820335,-12.00000000000003,0.4501682233361137,0.45016822333611595,0.0,0.027020603114102926,0.02702060311412513,0.0,0.0,70.0,255.0,255.0,255.0
378,18.900000000000002,1.6700186963385415,1.6700186963385417,-12.00000000000003,0.4515116788842488,0.45151167888425103,0.0,0.026758148406602622,0.026758148406558213,0.0,0.0,70.0,255.0,255.0,255.0
379,18.95,1.692627736091775,1.6926277360917752,-12.00000000000003,0.452844038176774,0.45284403817677177,0.0,0.026458989802136124,0.02645898980206951,0.0,0.0,70.0,255.0,255.0,255.0
380,19.0,1.715303100156219,1.715303100156219,-12.00000000000003,0.4541575778644624,0.454157577864458,0.0,0.025879963266906003,0.0258799632668838,0.0,0.0,70.0,255.0,255.0,255.0
381,19.05,1.7380434938782212,1.738043493878221,-12.00000000000003,0.4554320345034646,0.45543203450346015,0.0,0.024894514456708094,0.0248945144567303,0.0,0.0,70.0,255.0,255.0,255.0
382,19.1,1.7608463036065654,1.760846303606565,-12.00000000000003,0.45664702931013323,0.456647029310131,0.0,0.023623228881697322,0.023623228881763936,0.0,0.0,70.0,255.0,255.0,255.0
383,19.150000000000002,1.7837081968092345,1.783708196809234,-12.00000000000003,0.4577943573916343,0.45779435739163654,0.0,0.022300937276176214,0.022300937276287236,0.0,0.0,70.0,255.0,255.0,255.0
384,19.200000000000003,1.8066257393457288,1.8066257393457286,-12.00000000000003,0.45887712303775086,0.45887712303775974,0.0,0.021149940665354805,0.021149940665443623,0.0,0.0,70.0,255.0,255.0,255.0
385,19.25,1.8295959091130096,1.82959590911301,-12.00000000000003,0.4599093514581698,0.4599093514581809,0.0,0.020395166459596936,0.020395166459596936,0.0,0.0,70.0,255.0,255.0,255.0
386,19.3,1.8526166744915458,1.8526166744915467,-12.00000000000003,0.46091663968371055,0.46091663968371943,0.0,0.020143452612186863,0.020143452612098045,0.0,0.0,70.0,255.0,255.0,255.0
387,19.35,1.8756875730813807,1.875687573081382,-12.00000000000003,0.4619236967193885,0.4619236967193907,0.0,0.020242005834658627,0.02024200583448099,0.0,0.0,70.0,255.0,255.0,255.0
388,19.400000000000002,1.8988090441634846,1.8988090441634857,-12.00000000000003,0.4629408402671764,0.46294084026716753,0.0,0.020401738852560136,0.020401738852293683,0.0,0.0,70.0,255.0,255.0,255.0
389,19.450000000000003,1.9219816571080983,1.9219816571080988,-12.00000000000003,0.4639638706046445,0.4639638706046201,0.0,0.020335186930431348,0.020335186930120486,0.0,0.0,70.0,255.0,255.0,255.0
390,19.5,1.945205431223949,1.9452054312239477,-12.00000000000003,0.46497435896021955,0.4649743589601796,0.0,0.019755408190635926,0.019755408190480495,0.0,0.0,70.0,255.0,255.0,255.0
391,19.55,1.9684790930041203,1.9684790930041167,-12.00000000000003,0.4659394114237081,0.4659394114236681,0.0,0.01852458884714636,0.018524588847412815,0.0,0.0,70.0,255.0,255.0,255.0
392,19.6,1.9917993723663199,1.9917993723663145,-12.00000000000003,0.4668268178449342,0.46682681784492086,0.0,0.016815927266700115,0.016815927267499475,0.0,0.0,70.0,255.0,255.0,255.0
393,19.650000000000002,2.0151617747886137,2.015161774788609,-12.00000000000003,0.4676210041503781,0.4676210041504181,0.0,0.014965766987629081,0.014965766988783713,0.0,0.0,70.0,255.0,255.0,255.0
394,19.700000000000003,2.0385614727813577,2.0385614727813564,-12.00000000000003,0.4683233945436971,0.46832339454379923,0.0,0.013315372219357968,0.013315372220423782,0.0,0.0,70.0,255.0,255.0,255.0
395,19.75,2.0619941142429834,2.0619941142429887,-12.00000000000003,0.4689525413723139,0.46895254137246045,0.0,0.012211172805631776,0.012211172805987047,0.0,0.0,70.0,255.0,255.0,255.0
396,19.8,2.085456726918589,2.0854567269186024,-12.00000000000003,0.46954451182426027,0.46954451182439794,0.0,0.011824765425316741,0.011824765424295336,0.0,0.0,70.0,255.0,255.0,255.0
397,19.85,2.1089485654254094,2.1089485654254285,-12.00000000000003,0.4701350179148456,0.47013501791489,0.0,0.011966173210264941,0.01196617320742277,0.0,0.0,70.0,255.0,255.0,255.0
398,19.900000000000002,2.1324702287100736,2.1324702287100914,-12.00000000000003,0.47074112914528676,0.4707411291451402,0.0,0.012263305085369325,0.012263305081150477,0.0,0.0,70.0,255.0,255.0,255.0
399,19.950000000000003,2.156022678339938,2.1560226783399425,-12.00000000000003,0.4713613484233825,0.47136134842300503,0.0,0.012343464052744224,0.01234346404879183,0.0,0.0,70.0,255.0,255.0,255.0
400,20.0,2.179606363552412,2.179606363552392,-12.00000000000003,0.4719754755505612,0.4719754755500194,0.0,0.0118239565307654,0.011823956529477542,0.0,0.0,70.0,255.0,255.0,255.0
401,20.05,2.203220225894994,2.2032202258949445,-12.00000000000003,0.47254374407645905,0.4725437440759528,0.0,0.010516489311163113,0.010516489315159916,0.0,0.0,70.0,255.0,255.0,255.0
402,20.1,2.226860737960058,2.226860737959987,-12.00000000000003,0.4730271244816775,0.4730271244815354,0.0,0.008647491780333638,0.008647491790814144,0.0,0.0,70.0,255.0,255.0,255.0
403,20.150000000000002,2.250522938343162,2.250522938343098,-12.00000000000003,0.4734084932544924,0.4734084932550342,0.0,0.006652900783477023,0.006652900798576056,0.0,0.0,70.0,255.0,255.0,255.0
404,20.200000000000003,2.274201587285507,2.2742015872854906,-12.00000000000003,0.4736924145600252,0.473692414561393,0.0,0.004963918422973279,0.00496391843776145,0.0,0.0,70.0,255.0,255.0,255.0
405,20.25,2.2978921797991645,2.2978921797992373,-12.00000000000003,0.47390488509678974,0.47390488509881035,0.0,0.004016917154547883,0.004016917159921363,0.0,0.0,70.0,255.0,255.0,255.0
406,20.3,2.321592075795186,2.3215920757953716,-12.00000000000003,0.47409410627548,0.47409410627738513,0.0,0.004022937003345106,0.004022936988468118,0.0,0.0,70.0,255.0,255.0,255.0
407,20.35,2.3453015904267125,2.345301590426976,-12.00000000000003,0.47430717879712425,0.47430717879765716,0.0,0.004713976218617688,0.00471397617944902,0.0,0.0,70.0,255.0,255.0,255.0
408,20.400000000000002,2.3690227936748984,2.3690227936751374,-12.00000000000003,0.47456550389734176,0.47456550389533003,0.0,0.005574136070274349,0.005574136013830611,0.0,0.0,70.0,255.0,255.0,255.0
409,20.450000000000003,2.3927581408164467,2.392758140816509,-12.00000000000003,0.4748645924041517,0.4748645923990402,0.0,0.006088228222989045,0.006088228167744347,0.0,0.0,70.0,255.0,255.0,255.0
410,20.5,2.4165092529153136,2.4165092529150414,-12.00000000000003,0.47517432671964066,0.47517432671210447,0.0,0.005740449442548368,0.005740449422564353,0.0,0.0,70.0,255.0,255.0,255.0
411,20.55,2.4402755734884107,2.4402755734877193,-12.00000000000003,0.4754386373484065,0.47543863734129665,0.0,0.00427810300163145,0.004278103056831739,0.0,0.0,70.0,255.0,255.0,255.0
412,20.6,2.4640531166501543,2.464053116649171,-12.00000000000003,0.4756021370198038,0.47560213701778764,0.0,0.0019891907580671386,0.0019891909041724887,0.0,0.0,70.0,255.0,255.0,255.0
413,20.650000000000002,2.487835787190391,2.487835787189498,-12.00000000000003,0.47563755642421324,0.4756375564317139,0.0,-0.0005611933160842852,-0.0005611931050530927,0.0,0.0,70.0,255.0,255.0,255.0
414,20.700000000000003,2.5116168722925756,2.5116168722923424,-12.00000000000003,0.4755460176881954,0.47554601770728233,0.0,-0.002804197282113563,-0.002804197075834125,0.0,0.0,70.0,255.0,255.0,255.0
415,20.75,2.5353903889592107,2.5353903889602263,-12.00000000000003,0.4753571366960019,0.4753571367241305,0.0,-0.004166780193060049,-0.004166780118497471,0.0,0.0,70.0,255.0,255.0,255.0
416,20.8,2.5591525859621758,2.5591525859647555,-12.00000000000003,0.47512933966888937,0.4751293396954326,0.0,-0.004362202156826811,-0.004362202362973022,0.0,0.0,70.0,255.0,255.0,255.0
417,20.85,2.5829033229260996,2.5829033229297695,-12.00000000000003,0.4749209164803192,0.4749209164878332,0.0,-0.003684259064495876,-0.00368425960965979,0.0,0.0,70.0,255.0,255.0,255.0
418,20.900000000000002,2.6066446776102077,2.606644677613539,-12.00000000000003,0.4747609137624398,0.4747609137344666,0.0,-0.0027158429924956096,-0.002715843779688143,0.0,0.0,70.0,255.0,255.0,255.0
419,20.950000000000003,2.6303794143023436,2.630379414303216,-12.00000000000003,0.47464933218106964,0.4746493321098644,0.0,-0.002037872660620721,-0.0020378734309378643,0.0,0.0,70.0,255.0,255.0,255.0
420,21.0,2.6541096108283146,2.6541096108245252,-12.00000000000003,0.4745571264963777,0.4745571263913728,0.0,-0.00223323543018239,-0.002233235708715142,0.0,0.0,70.0,255.0,255.0,255.0
421,21.05,2.6778351269519813,2.6778351269423535,-12.00000000000003,0.4744260086380514,0.47442600853899286,0.0,-0.0035957279408638243,-0.0035957271712572236,0.0,0.0,70.0,255.0,255.0,255.0
422,21.1,2.70155221169212,2.7015522116784245,-12.00000000000003,0.47419755370229133,0.4741975536742471,0.0,-0.005838634686705646,-0.005838632652377385,0.0,0.0,70.0,255.0,255.0,255.0
423,21.150000000000002,2.7252548823222105,2.725254882309778,-12.00000000000003,0.47384214516938084,0.4738421452737551,0.0,-0.008388954527482895,-0.008388951589655136,0.0,0.0,70.0,255.0,255.0,255.0
424,21.200000000000003,2.748936426209058,2.7489364262058,-12.00000000000003,0.47335865824954304,0.4733586585152816,0.0,-0.010677878508635885,-0.010677875633335887,0.0,0.0,70.0,255.0,255.0,255.0
425,21.25,2.7725907481471648,2.7725907481613064,-12.00000000000003,0.47277435731851725,0.47277435771042153,0.0,-0.012140371326418986,-0.01214037028662851,0.0,0.0,70.0,255.0,255.0,255.0
426,21.3,2.7962138619409096,2.796213861976842,-12.00000000000003,0.47214462111690114,0.47214462148661873,0.0,-0.012488452513625958,-0.012488455386261421,0.0,0.0,70.0,255.0,255.0,255.0
427,21.35,2.819805210258855,2.8198052103099682,-12.00000000000003,0.47152551206715465,0.4715255121717954,0.0,-0.01197472200225036,-0.011974729594799172,0.0,0.0,70.0,255.0,255.0,255.0
428,21.400000000000002,2.843366413147625,2.8433664131940217,-12.00000000000003,0.4709471489166761,0.4709471485271388,0.0,-0.011114819083912764,-0.011114830047809221,0.0,0.0,70.0,255.0,255.0,255.0
429,21.450000000000003,2.8668999251505225,2.866899925162682,-12.00000000000003,0.4704140301587634,0.47041402916701447,0.0,-0.010423760157740602,-0.010423770888490225,0.0,0.0,70.0,255.0,255.0,255.0
430,21.5,2.8904078161635014,2.890407816110723,-12.00000000000003,0.46990477290090205,0.4699047714382898,0.0,-0.010417213996305463,-0.010417217876623752,0.0,0.0,70.0,255.0,255.0,255.0
431,21.55,2.9138904024406127,2.913890402306511,-12.00000000000003,0.46937230875913283,0.4693723073793521,0.0,-0.011363096037619869,-0.011363085316817845,0.0,0.0,70.0,255.0,255.0,255.0
432,21.6,2.9373450470394147,2.9373450468486584,-12.00000000000003,0.46876846329714006,0.468768462906608,0.0,-0.013050729052288546,-0.013050700717043284,0.0,0.0,70.0,255.0,255.0,255.0
433,21.650000000000002,2.9607672487703267,2.960767248597172,-12.00000000000003,0.468067235853904,0.46806723730764777,0.0,-0.015044356548843396,-0.015044315631174143,0.0,0.0,70.0,255.0,255.0,255.0
434,21.700000000000003,2.984151770624805,2.984151770579423,-12.00000000000003,0.4672640276422557,0.4672640313434906,0.0,-0.01691342118688155,-0.01691338113869456,0.0,0.0,70.0,255.0,255.0,255.0
435,21.75,3.0074936515345523,3.007493651731521,-12.00000000000003,0.4663758937352158,0.4663758991937783,0.0,-0.018222847281235133,-0.018222832799175137,0.0,0.0,70.0,255.0,255.0,255.0
436,21.8,3.0307893599983267,3.030789360498801,-12.00000000000003,0.4654417429141322,0.4654417480635731,0.0,-0.01874652930333731,-0.01874656931404317,0.0,0.0,70.0,255.0,255.0,255.0
437,21.85,3.0540378258259655,3.0540378265378783,-12.00000000000003,0.4645012408048821,0.464501242262374,0.0,-0.01867140607720863,-0.018671511826040543,0.0,0.0,70.0,255.0,255.0,255.0
438,21.900000000000002,3.077239484078815,3.0772394847250384,-12.00000000000003,0.46357460230641134,0.463574596880969,0.0,-0.01837787127043633,-0.018378023977527747,0.0,0.0,70.0,255.0,255.0,255.0
439,21.950000000000003,3.1003952860566066,3.100395286225975,-12.00000000000003,0.46266345367783845,0.4626634398646212,0.0,-0.01823621476852999,-0.018236364230528324,0.0,0.0,70.0,255.0,255.0,255.0
440,22.0,3.1235058294465987,3.1235058287115005,-12.00000000000003,0.46175098082955834,0.4617509604579162,0.0,-0.018615312963188302,-0.018615367010443862,0.0,0.0,70.0,255.0,255.0,255.0
441,22.05,3.1465703841395625,3.1465703822717668,-12.00000000000003,0.4608019223815196,0.46080190316357683,0.0,-0.019703933601933343,-0.01970378427991193,0.0,0.0,70.0,255.0,255.0,255.0
442,22.1,3.1695860216847507,3.169586019027858,-12.00000000000003,0.459780587469365,0.459780582029925,0.0,-0.0213355347502997,-0.021335140090839033,0.0,0.0,70.0,255.0,255.0,255.0
443,22.150000000000002,3.192548442886499,3.1925484404747593,-12.00000000000003,0.45866836890648965,0.45866838915449293,0.0,-0.02317227025772084,-0.02317170034693561,0.0,0.0,70.0,255.0,255.0,255.0
444,22.200000000000003,3.2154528585753996,3.2154528579433075,-12.00000000000003,0.4574633604435929,0.45746341199523144,0.0,-0.024881859599412692,-0.024881301799428712,0.0,0.0,70.0,255.0,255.0,255.0
445,22.25,3.2382947789308583,3.2382947816742824,-12.00000000000003,0.4561801829465484,0.45618025897455006,0.0,-0.02613995680991188,-0.026139755102994044,0.0,0.0,70.0,255.0,255.0,255.0
446,22.3,3.2610708768700545,3.2610708838407625,-12.00000000000003,0.45484936476260174,0.45484943648493203,0.0,-0.026777876148731394,-0.0267784334261556,0.0,0.0,70.0,255.0,255.0,255.0
447,22.35,3.2837797154071184,3.2837797253227756,-12.00000000000003,0.45350239533167525,0.4535024156319345,0.0,-0.026914566809654872,-0.026916039698754446,0.0,0.0,70.0,255.0,255.0,255.0
448,22.400000000000002,3.306421116403222,3.306421125403956,-12.00000000000003,0.45215790808163625,0.4521578325150566,0.0,-0.026804935810886832,-0.026807062746669885,0.0,0.0,70.0,255.0,255.0,255.0
449,22.450000000000003,3.328995506215282,3.3289955085742813,-12.00000000000003,0.45082190175058656,0.4508217093572675,0.0,-0.026702920260657237,-0.02670500199837278,0.0,0.0,70.0,255.0,255.0,255.0
450,22.5,3.3515033065782807,3.3515032963396827,-12.00000000000003,0.4494876160555705,0.4494873323152193,0.0,-0.026852831824975,-0.02685358460570164,0.0,0.0,70.0,255.0,255.0,255.0
451,22.55,3.373944267820839,3.373944241805803,-12.00000000000003,0.44813661856808906,0.44813635089669734,0.0,-0.027390622409040333,-0.027388542621631373,0.0,0.0,70.0,255.0,255.0,255.0
452,22.6,3.3963169684350896,3.3963169314293524,-12.00000000000003,0.4467485538146665,0.4467484780530562,0.0,-0.0282798576848986,-0.028274360787738928,0.0,0.0,70.0,255.0,255.0,255.0
453,22.650000000000002,3.4186191232023058,3.418619089611109,-12.00000000000003,0.4453086327995992,0.44530891481792345,0.0,-0.029415165986002023,-0.029407228153344178,0.0,0.0,70.0,255.0,255.0,255.0
454,22.700000000000003,3.4408478317150495,3.4408478229111448,-12.00000000000003,0.4438070372160663,0.44380775523772176,0.0,-0.03069265982418301,-0.03068489067330482,0.0,0.0,70.0,255.0,255.0,255.0
455,22.75,3.4629998269239124,3.462999865134881,-12.00000000000003,0.4422393668171809,0.44224042575059297,0.0,-0.03201272521402565,-0.03200991579817014,0.0,0.0,70.0,255.0,255.0,255.0
456,22.8,3.4850717683967676,3.485071865486204,-12.00000000000003,0.4406057646946637,0.44060676365790474,0.0,-0.03330737314271026,-0.033315135015232755,0.0,0.0,70.0,255.0,255.0,255.0
457,22.85,3.5070604033933788,3.5070605415006715,-12.00000000000003,0.4389086295029099,0.4389089122490697,0.0,-0.03452786725266499,-0.034548381952426155,0.0,0.0,70.0,255.0,255.0,255.0
458,22.900000000000002,3.5289626313470586,3.528962756711111,-12.00000000000003,0.4371529779693972,0.4371519254626621,0.0,-0.035610857121648465,-0.035640481515919475,0.0,0.0,70.0,255.0,255.0,255.0
459,22.950000000000003,3.5507757011903185,3.5507757340469377,-12.00000000000003,0.43534754379074503,0.43534486409747775,0.0,-0.036487466084000886,-0.036516460949620466,0.0,0.0,70.0,255.0,255.0,255.0
460,23.0,3.572497385726133,3.572497243120859,-12.00000000000003,0.43350423136099714,0.4335002793677001,0.0,-0.037096267318847964,-0.03710675220189863,0.0,0.0,70.0,255.0,255.0,255.0
461,23.05,3.594126124326418,3.5941257619837077,-12.00000000000003,0.43163791705886023,0.4316341888772879,0.0,-0.03741885937875722,-0.0373898916760762,0.0,0.0,70.0,255.0,255.0,255.0
462,23.1,3.615661177432019,3.6156606620085876,-12.00000000000003,0.4297623454231214,0.42976129020009246,0.0,-0.037532216428193266,-0.037455654526441506,0.0,0.0,70.0,255.0,255.0,255.0
463,23.150000000000002,3.6371023588687303,3.637101891003717,-12.00000000000003,0.4278846954160409,0.42788862342464373,0.0,-0.037579540725385385,-0.037468980980648325,0.0,0.0,70.0,255.0,255.0,255.0
464,23.200000000000003,3.658449646973623,3.658449524351052,-12.00000000000003,0.4260043913505829,0.42601439210202763,0.0,-0.03771645019843284,-0.03760823988674389,0.0,0.0,70.0,255.0,255.0,255.0
465,23.25,3.6797027980037886,3.6797033302139197,-12.00000000000003,0.4241130503961976,0.42412779943596934,0.0,-0.038090224159104125,-0.03805109404297902,0.0,0.0,70.0,255.0,255.0,255.0
466,23.3,3.700860952013243,3.700862304294649,-12.00000000000003,0.42219536893467247,0.4222092826977297,0.0,-0.038777189342642515,-0.03888529828102172,0.0,0.0,70.0,255.0,255.0,255.0
467,23.35,3.721922334897256,3.7219242584836927,-12.00000000000003,0.42023533146193337,0.42023926960786717,0.0,-0.03973785910877936,-0.040023592016336096,0.0,0.0,70.0,255.0,255.0,255.0
468,23.400000000000002,3.7428844851594363,3.7428862312554356,-12.00000000000003,0.41822158302379453,0.4182069234960961,0.0,-0.040876387902022415,-0.041289002485900284,0.0,0.0,70.0,255.0,255.0,255.0
469,23.450000000000003,3.7637444931996353,3.7637449508333023,-12.00000000000003,0.41614769267173113,0.41611036935927714,0.0,-0.04208673312193767,-0.04249057950302948,0.0,0.0,70.0,255.0,255.0,255.0
470,23.5,3.7844992544266094,3.7844972681913633,-12.00000000000003,0.41401290971160076,0.41395786554579317,0.0,-0.04325481739657633,-0.043400852978781046,0.0,0.0,70.0,255.0,255.0,255.0
471,23.55,3.8051457841707954,3.8051407373878816,-12.00000000000003,0.4118222109320735,0.41177028406139904,0.0,-0.0443134088921493,-0.04390994084140232,0.0,0.0,70.0,255.0,255.0,255.0
472,23.6,3.8256814755198167,3.8256742965975032,-12.00000000000003,0.40958156882238583,0.40956687146165294,0.0,-0.045278211938670765,-0.04421184221037322,0.0,0.0,70.0,255.0,255.0,255.0
473,23.650000000000002,3.846103941053034,3.846097424534047,-12.00000000000003,0.4072943897382064,0.4073490998403617,0.0,-0.04619136454322437,-0.04465146595165059,0.0,0.0,70.0,255.0,255.0,255.0
474,23.700000000000003,3.8664109144936374,3.8664092065815394,-12.00000000000003,0.4049624323680634,0.4051017248664879,0.0,-0.047090929667970016,-0.04551662158784886,0.0,0.0,70.0,255.0,255.0,255.0
475,23.75,3.8866001842898403,3.8866075970206957,-12.00000000000003,0.4025852967714094,0.40279743768157683,0.0,-0.048038478281942076,-0.04697318634994119,0.0,0.0,70.0,255.0,255.0,255.0
476,23.8,3.9066694441707783,3.906688950349697,-12.00000000000003,0.4001585845398692,0.40040440623149376,0.0,-0.04906194898199878,-0.049105707584296,0.0,0.0,70.0,255.0,255.0,255.0
477,23.85,3.9266160427438273,3.926648037643845,-12.00000000000003,0.39767910187320954,0.39788686692314723,0.0,-0.05007106469894218,-0.05203309508630127,0.0,0.0,70.0,255.0,255.0,255.0
478,23.900000000000002,3.9464373543580993,3.946477637042012,-12.00000000000003,0.39515147806997497,0.39520109672286363,0.0,-0.050917221523683054,-0.05587352531590817,0.0,0.0,70.0,255.0,255.0,255.0
479,23.950000000000003,3.9661311905508247,3.9661681473161314,-12.00000000000003,0.39258737972084123,0.3922995143915564,0.0,-0.0514691752456109,-0.060653563515922215,0.0,0.0,70.0,255.0,255.0,255.0
480,24.0,3.9856960923301834,3.9857075884811675,-12.00000000000003,0.3900045605454139,0.3891357403712714,0.0,-0.05159136271610798,-0.0663819260968701,0.0,0.0,70.0,255.0,255.0,255.0
481,24.05,4.005131646605366,4.005081721353259,-12.00000000000003,0.38742824344923044,0.3856613217818694,0.0,-0.05123739657832971,-0.07298042229457735,0.0,0.0,70.0,255.0,255.0,255.0
482,24.1,4.0244389166751064,4.024273720659354,-12.00000000000003,0.3848808208875809,0.3818376981418137,0.0,-0.05060013998807733,-0.08001531124408601,0.0,0.0,70.0,255.0,255.0,255.0
483,24.150000000000002,4.043619728694124,4.04326549116744,-12.00000000000003,0.3823682294504227,0.3776597906574608,0.0,-0.05001965612185799,-0.08676315073339325,0.0,0.0,70.0,255.0,255.0,255.0
484,24.200000000000003,4.062675739620149,4.0620396997251005,-12.00000000000003,0.3798788552753951,0.37316138306847435,0.0,-0.049837404314612144,-0.092496443695822,0.0,0.0,70.0,255.0,255.0,255.0
485,24.25,4.081607614221664,4.080581629474287,-12.00000000000003,0.3773844890189615,0.3684101462878786,0.0,-0.050380033557573256,-0.09663514655873229,0.0,0.0,70.0,255.0,255.0,255.0
486,24.3,4.100414188522045,4.098880714353888,-12.00000000000003,0.3748408519196378,0.3634978684126011,0.0,-0.05179657659279968,-0.09890658925133522,0.0,0.0,70.0,255.0,255.0,255.0
487,24.35,4.1190916994136275,4.1169314163155475,-12.00000000000003,0.3722048313596815,0.3585194873627451,0.0,-0.053877652738520965,-0.09942043849253679,0.0,0.0,70.0,255.0,255.0,255.0
488,24.400000000000002,4.137634671658013,4.134732663090163,-12.00000000000003,0.3694530866457857,0.35355582456334744,0.0,-0.05621235911670297,-0.09852916312560467,0.0,0.0,70.0,255.0,255.0,255.0
489,24.450000000000003,4.156037008078206,4.152286998771882,-12.00000000000003,0.3665835954480112,0.3486665710501846,0.0,-0.05836945924384551,-0.0967419204420672,0.0,0.0,70.0,255.0,255.0,255.0
490,24.5,4.174293031202814,4.169599320195181,-12.00000000000003,0.36361614072140114,0.3438816325191407,0.0,-0.059920484406017493,-0.09465809372919409,0.0,0.0,70.0,255.0,255.0,255.0
491,24.55,4.192398622150346,4.186675162023796,-12.00000000000003,0.3605915470074095,0.3392007616772652,0.0,-0.0606435231576441,-0.09266986405611632,0.0,0.0,70.0,255.0,255.0,255.0
492,24.6,4.210352185903555,4.203519396362908,-12.00000000000003,0.35755178840563673,0.3346146461135291,0.0,-0.0607009973096595,-0.09085417021692521,0.0,0.0,70.0,255.0,255.0,255.0
493,24.650000000000002,4.22815380099091,4.220136626635149,-12.00000000000003,0.3545214472764435,0.3301153446555727,0.0,-0.06043831999837934,-0.08926658371075646,0.0,0.0,70.0,255.0,255.0,255.0
494,24.700000000000003,4.245804330631199,4.236530930828465,-12.00000000000003,0.3515079564057988,0.32568798774245344,0.0,-0.060205131670176826,-0.08805923117911618,0.0,0.0,70.0,255.0,255.0,255.0
495,24.75,4.26330459663149,4.252705425409395,-12.00000000000003,0.34850093410942584,0.32130942153766107,0.0,-0.06035798219885535,-0.08739299134568057,0.0,0.0,70.0,255.0,255.0,255.0
496,24.8,4.280654424042142,4.268661872982231,-12.00000000000003,0.34547215818591326,0.3169486886078854,0.0,-0.06108816527516936,-0.08732808039804141,0.0,0.0,70.0,255.0,255.0,255.0
497,24.85,4.297851812450081,4.284400294270183,-12.00000000000003,0.3423921175819089,0.3125766134978569,0.0,-0.06227108529568426,-0.08771206478783711,0.0,0.0,70.0,255.0,255.0,255.0
498,24.900000000000002,4.314893635800333,4.299919534332017,-12.00000000000003,0.33924504965634483,0.3081774821291017,0.0,-0.06364331193884354,-0.08825531788287932,0.0,0.0,70.0,255.0,255.0,255.0
499,24.950000000000003,4.331776317415716,4.315218042483093,-12.00000000000003,0.33602778638802455,0.303751081709569,0.0,-0.06494912829433375,-0.08864129470191884,0.0,0.0,70.0,255.0,255.0,255.0
500,25.0,4.348496414439135,4.330294642502974,-12.00000000000003,0.33275013682691146,0.2993133526589098,0.0,-0.06591565206690575,-0.08854998750758014,0.0,0.0,70.0,255.0,255.0,255.0
501,25.05,4.365051331098407,4.345149377748984,-12.00000000000003,0.329436221181334,0.294896082958811,0.0,-0.06640446842238745,-0.08781846703254104,0.0,0.0,70.0,255.0,255.0,255.0
502,25.1,4.381440036557269,4.359784250798855,-12.00000000000003,0.3261096899846727,0.2905315059556557,0.0,-0.06657829787162228,-0.08658661492058073,0.0,0.0,70.0,255.0,255.0,255.0
503,25.150000000000002,4.397662300096874,4.37420252834455,-12.00000000000003,0.32277839139417175,0.2862374214667529,0.0,-0.06674395672163769,-0.08514226130831304,0.0,0.0,70.0,255.0,255.0,255.0
504,25.200000000000003,4.413717875696686,4.38840799294553,-12.00000000000003,0.31943529431250894,0.2820172798248244,0.0,-0.06719201482585646,-0.08377596297384216,0.0,0.0,70.0,255.0,255.0,255.0
505,25.25,4.429605829528125,4.402404256327032,-12.00000000000003,0.3160591899115861,0.2778598251693687,0.0,-0.06821530696949907,-0.08278300267887673,0.0,0.0,70.0,255.0,255.0,255.0
506,25.3,4.4453237946878446,4.416193975462467,-12.00000000000003,0.31261376361555904,0.2737389795569367,0.0,-0.06994813352916296,-0.08231739879125399,0.0,0.0,70.0,255.0,255.0,255.0
507,25.35,4.460867205889681,4.429778154282726,-12.00000000000003,0.3090643765586698,0.2696280852902433,0.0,-0.07216947613155611,-0.08225513520425665,0.0,0.0,70.0,255.0,255.0,255.0
508,25.400000000000002,4.4762302323437115,4.443156783991491,-12.00000000000003,0.3053968160024034,0.26551346603651105,0.0,-0.07446542993880811,-0.0823428163712947,0.0,0.0,70.0,255.0,255.0,255.0
509,25.450000000000003,4.491406887489921,4.456329500886377,-12.00000000000003,0.301617833564789,0.2613938036531138,0.0,-0.0764239779032394,-0.08233448044245861,0.0,0.0,70.0,255.0,255.0,255.0
510,25.5,4.50639201570019,4.469296164356803,-12.00000000000003,0.2977544182120795,0.2572800179922652,0.0,-0.07764717599982873,-0.08198606704459266,0.0,0.0,70.0,255.0,255.0,255.0
511,25.55,4.521182329311129,4.4820575026856035,-12.00000000000003,0.2938531159648061,0.25319519694865456,0.0,-0.07794211168041798,-0.08117207766202839,0.0,0.0,70.0,255.0,255.0,255.0
512,25.6,4.535777327296671,4.494615684051668,-12.00000000000003,0.2899602070440377,0.24916281022606235,0.0,-0.0775154526134969,-0.07999825218760748,0.0,0.0,70.0,255.0,255.0,255.0
513,25.650000000000002,4.550178350015533,4.50697378370821,-12.00000000000003,0.28610157070345643,0.2451953717298938,0.0,-0.0767843468321594,-0.07868106528183816,0.0,0.0,70.0,255.0,255.0,255.0
514,25.700000000000003,4.564387484367017,4.519135221224658,-12.00000000000003,0.28228177236082175,0.24129470369787853,0.0,-0.07617762134675132,-0.0774326886839205,0.0,0.0,70.0,255.0,255.0,255.0
515,25.75,4.578406527251615,4.531103254077998,-12.00000000000003,0.2784838085687813,0.23745210286150176,0.0,-0.0761119797083154,-0.07645669184599413,0.0,0.0,70.0,255.0,255.0,255.0
516,25.8,4.592235865223895,4.542880431510808,-12.00000000000003,0.2746705743899902,0.23364903451327912,0.0,-0.07680948035559965,-0.0758608639858771,0.0,0.0,70.0,255.0,255.0,255.0
517,25.85,4.605873584690614,4.5544681575293255,-12.00000000000003,0.27080286053322133,0.22986601646291405,0.0,-0.07815696516244586,-0.07558644812011295,0.0,0.0,70.0,255.0,255.0,255.0
518,25.900000000000002,4.619316151277217,4.565867033157099,-12.00000000000003,0.2668548778737456,0.22609038970126782,0.0,-0.07988977014479204,-0.07549833042741483,0.0,0.0,70.0,255.0,255.0,255.0
519,25.950000000000003,4.632559072477989,4.577077196499452,-12.00000000000003,0.26281388351874213,0.22231618342017256,0.0,-0.08173845046259842,-0.0754614781088847,0.0,0.0,70.0,255.0,255.0,255.0
520,26.0,4.645597539629091,4.588098651499116,-12.00000000000003,0.2586810328274858,0.21854424189037935,0.0,-0.08343292381480794,-0.07535117489529952,0.0,0.0,70.0,255.0,255.0,255.0
521,26.05,4.658427175760737,4.59893162068849,-12.00000000000003,0.25447059113726134,0.2147810659306426,0.0,-0.08481493193235323,-0.07509169250123904,0.0,0.0,70.0,255.0,255.0,255.0
522,26.1,4.671044598742817,4.609576758092181,-12.00000000000003,0.25019953963425046,0.21103507264025545,0.0,-0.08590218790249793,-0.07465959169605796,0.0,0.0,70.0,255.0,255.0,255.0
523,26.150000000000002,4.683447129724162,4.620035127952516,-12.00000000000003,0.24588037234701154,0.20731510676103682,0.0,-0.08676855394069705,-0.07404113748421537,0.0,0.0,70.0,255.0,255.0,255.0
524,26.200000000000003,4.6956326359775185,4.630308268768284,-12.00000000000003,0.24152268424018075,0.2036309588918339,0.0,-0.08747668869100167,-0.07322191170073822,0.0,0.0,70.0,255.0,255.0,255.0
525,26.25,4.70759939814818,4.640398223841699,-12.00000000000003,0.23713270347791138,0.199992915590963,0.0,-0.08809627841168677,-0.07218261789754266,0.0,0.0,70.0,255.0,255.0,255.0
526,26.3,4.71934590632531,4.650307560327381,-12.00000000000003,0.23271305639901207,0.19641269710207965,0.0,-0.08867633970037758,-0.07093134036812998,0.0,0.0,70.0,255.0,255.0,255.0
527,26.35,4.7308707037880815,4.660039493551907,-12.00000000000003,0.22826506950787362,0.19289978155415,0.0,-0.08923512238894205,-0.06957602425554654,0.0,0.0,70.0,255.0,255.0,255.0
528,26.400000000000002,4.742172413276097,4.669597538482796,-12.00000000000003,0.22378954416011787,0.189455094676525,0.0,-0.08979685325316566,-0.0682979587964816,0.0,0.0,70.0,255.0,255.0,255.0
529,26.450000000000003,4.753249658204093,4.67898500301956,-12.00000000000003,0.21928538418255705,0.18606998567450184,0.0,-0.09040048241919507,-0.06728313616060078,0.0,0.0,70.0,255.0,255.0,255.0
530,26.5,4.764100951694353,4.688204537050246,-12.00000000000003,0.21474949591819836,0.18272678106046492,0.0,-0.09107799983461007,-0.06671033486682632,0.0,0.0,70.0,255.0,255.0,255.0
531,26.55,4.774724607795913,4.697257681125606,-12.00000000000003,0.21017758419909605,0.1793989521878192,0.0,-0.09184642255277709,-0.06665725838077563,0.0,0.0,70.0,255.0,255.0,255.0
532,26.6,4.785118710114262,4.706144432269028,-12.00000000000003,0.20556485366292065,0.17606105522238735,0.0,-0.09271461857904839,-0.06699006419488285,0.0,0.0,70.0,255.0,255.0,255.0
533,26.650000000000002,4.795281093162205,4.714863786647845,-12.00000000000003,0.2009061223411912,0.17269994576833092,0.0,-0.09368673700924646,-0.06745159609407025,0.0,0.0,70.0,255.0,255.0,255.0
534,26.700000000000003,4.805209322348381,4.723414426845861,-12.00000000000003,0.196196179961996,0.16931589561298033,0.0,-0.09476138163240222,-0.06777328258458226,0.0,0.0,70.0,255.0,255.0,255.0
535,26.75,4.814900711158405,4.731795376209143,-12.00000000000003,0.19142998417795098,0.1659226175098727,0.0,-0.09594771292595894,-0.06769604263521245,0.0,0.0,70.0,255.0,255.0,255.0
536,26.8,4.8243523207661765,4.740006688596848,-12.00000000000003,0.18660140866940012,0.16254629134945908,0.0,-0.09723848290894566,-0.0670863393961163,0.0,0.0,70.0,255.0,255.0,255.0
537,26.85,4.833560852025345,4.748050005344089,-12.00000000000003,0.18170613588705642,0.15921398357026106,0.0,-0.09854733569554242,-0.06603183085349684,0.0,0.0,70.0,255.0,255.0,255.0
538,26.900000000000002,4.842522934354882,4.755928086953874,-12.00000000000003,0.17674667509984587,0.1559431082641094,0.0,-0.09973442714796832,-0.06472754493875854,0.0,0.0,70.0,255.0,255.0,255.0
539,26.950000000000003,4.851235519535329,4.7636443161705,-12.00000000000003,0.1717326931722596,0.1527412290763852,0.0,-0.10066121715874843,-0.06337702021399494,0.0,0.0,70.0,255.0,255.0,255.0
540,27.0,4.859696203672108,4.771202209861513,-12.00000000000003,0.16668055338397103,0.1496054062427099,0.0,-0.10118317643375008,-0.06218549459227063,0.0,0.0,70.0,255.0,255.0,255.0
541,27.05,4.8679035748737265,4.778604856794771,-12.00000000000003,0.16161437552888458,0.14652267961715815,0.0,-0.10124533345718945,-0.06126964510722033,0.0,0.0,70.0,255.0,255.0,255.0
542,27.1,4.8758576412249965,4.785854477823229,-12.00000000000003,0.1565560200382521,0.14347844173198787,0.0,-0.1010195817623405,-0.06059804362683607,0.0,0.0,70.0,255.0,255.0,255.0
543,27.150000000000002,4.883559176877552,4.7929527009679695,-12.00000000000003,0.15151241735265053,0.14046287525447454,0.0,-0.10081368959680148,-0.06008447123626581,0.0,0.0,70.0,255.0,255.0,255.0
544,27.200000000000003,4.891008882960262,4.799900765348676,-12.00000000000003,0.14647465107857194,0.1374699946083613,0.0,-0.10093929751766595,-0.05965103749154821,0.0,0.0,70.0,255.0,255.0,255.0
545,27.25,4.898206641985409,4.806699700428806,-12.00000000000003,0.14141848760088394,0.13449777150531972,0.0,-0.10170354404266391,-0.05922202561654544,0.0,0.0,70.0,255.0,255.0,255.0
546,27.3,4.90515073172035,4.813350542499208,-12.00000000000003,0.13630429667430555,0.13154779204670675,0.0,-0.1032477823305733,-0.05874901956968159,0.0,0.0,70.0,255.0,255.0,255.0
547,27.35,4.9118370716528394,4.819854479633476,-12.00000000000003,0.1310937093678266,0.12862286954835156,0.0,-0.10536538620664615,-0.058216927040355415,0.0,0.0,70.0,255.0,255.0,255.0
548,27.400000000000002,4.918260102657133,4.826212829454043,-12.00000000000003,0.12576775805364093,0.1257260993426712,0.0,-0.10765808719197523,-0.05761279855329704,0.0,0.0,70.0,255.0,255.0,255.0
549,27.450000000000003,4.9244138474582035,4.8324270895677435,-12.00000000000003,0.12032790064862908,0.12286158969302186,0.0,-0.1097160449852197,-0.056912629353433886,0.0,0.0,70.0,255.0,255.0,255.0
550,27.5,4.930292892721996,4.838498988423345,-12.00000000000003,0.11479615355511896,0.12003483640732782,0.0,-0.11113066604311328,-0.056074374970283,0.0,0.0,70.0,255.0,255.0,255.0
551,27.55,4.935893462813715,4.844430573208476,-12.00000000000003,0.10921483404431775,0.11725415219599356,0.0,-0.11169696379358385,-0.05508756332774922,0.0,0.0,70.0,255.0,255.0,255.0
552,27.6,4.941214376126427,4.850224403642945,-12.00000000000003,0.10362645717576058,0.1145260800745529,0.0,-0.11160968926224868,-0.05405424821196547,0.0,0.0,70.0,255.0,255.0,255.0
553,27.650000000000002,4.9462561085312915,4.8558831812159315,-12.00000000000003,0.09805386511809289,0.11184872737479701,0.0,-0.11126314578477903,-0.05314433454977063,0.0,0.0,70.0,255.0,255.0,255.0
