idx,t,px,py,pz,vx,vy,vz,ax,ay,az,yaw,mode,ledr,ledg,ledb
0,0.0,5.000000000000003,0.0,0.0025000000000000226,-1.7763568394002505e-14,0.0,-0.054360101334379844,1.7763568394002505e-13,0.0,-0.22959932443746792,0.0,70.0,255.0,255.0,255.0
1,0.05,5.000000000000002,0.0,-0.0002180050667189696,-8.881784197001252e-15,0.0,-0.06584006755625324,1.7763568394002505e-13,0.0,-0.34369907110151854,0.0,70.0,255.0,255.0,255.0
2,0.1,5.000000000000002,0.0,-0.004084006755625301,0.0,0.0,-0.0887300084445317,8.881784197001252e-14,0.0,-0.4563989866562021,0.0,70.0,255.0,255.0,255.0
3,0.15000000000000002,5.000000000000002,0.0,-0.00909100591117214,0.0,0.0,-0.11147996622187345,1.0658141036401503e-12,0.0,-0.453599324437509,0.0,70.0,255.0,255.0,255.0
4,0.2,5.000000000000002,0.0,-0.015232003377812647,1.0658141036401503e-13,0.0,-0.1340899408882826,1.0658141036401503e-12,0.0,-0.4508013476267808,0.0,70.0,255.0,255.0,255.0
5,0.25,5.000000000000012,0.0,-0.0225000000000004,1.0658141036401503e-13,0.0,-0.15656010098455153,-1.0658141036401503e-12,0.0,-0.44801306191196183,0.0,70.0,255.0,255.0,255.0
6,0.30000000000000004,5.000000000000012,0.0,-0.030888013476267802,0.0,0.0,-0.1788912470794788,-1.0658141036401503e-12,0.0,-0.44523704222209054,0.0,70.0,255.0,255.0,255.0
7,0.35000000000000003,5.000000000000012,0.0,-0.04038912470794828,0.0,0.0,-0.20108380520676059,0.0,0.0,-0.4424513314362688,0.0,70.0,255.0,255.0,255.0
8,0.4,5.000000000000012,0.0,-0.05099639399694386,0.0,0.0,-0.22313638022310567,0.0,0.0,-0.4396208637046714,0.0,70.0,255.0,255.0,255.0
9,0.45,5.000000000000012,0.0,-0.06270276273025885,0.0,0.0,-0.24504589157722773,0.0,0.0,-0.43672423383545433,0.0,70.0,255.0,255.0,255.0
10,0.5,5.000000000000012,0.0,-0.07550098315466663,0.0,0.0,-0.2668088036066511,0.0,0.0,-0.43377634122043873,0.0,70.0,255.0,255.0,255.0
11,0.55,5.000000000000012,0.0,-0.08938364309092396,0.0,0.0,-0.2884235256992716,0.0,0.0,-0.4307817809379305,0.0,70.0,255.0,255.0,255.0
12,0.6000000000000001,5.000000000000012,0.0,-0.1043433357245938,0.0,0.0,-0.30988698170044415,0.0,0.0,-0.4276590810831482,0.0,70.0,255.0,255.0,255.0
13,0.65,5.000000000000012,0.0,-0.12037234126096838,0.0,0.0,-0.3311894338075864,0.0,0.0,-0.4242860118157238,0.0,70.0,255.0,255.0,255.0
14,0.7000000000000001,5.000000000000012,0.0,-0.13746227910535244,0.0,0.0,-0.35231558288201653,0.0,0.0,-0.4205709622648479,0.0,70.0,255.0,255.0,255.0
15,0.75,5.000000000000012,0.0,-0.15560389954917003,0.0,0.0,-0.3732465300340712,0.0,0.0,-0.4164427936264037,0.0,70.0,255.0,255.0,255.0
16,0.8,5.000000000000012,0.0,-0.17478693210875956,0.0,0.0,-0.3939598622446569,0.0,0.0,-0.41188852176516355,0.0,70.0,255.0,255.0,255.0
17,0.8500000000000001,5.000000000000012,0.0,-0.19499988577363572,0.0,0.0,-0.41443538221058757,0.0,0.0,-0.40703579411459634,0.0,70.0,255.0,255.0,255.0
18,0.9,5.000000000000012,0.0,-0.21623047032981832,0.0,0.0,-0.43466344165611653,0.0,0.0,-0.40211583495317615,0.0,70.0,255.0,255.0,255.0
19,0.9500000000000001,5.000000000000012,0.0,-0.23846622993924738,0.0,0.0,-0.4546469657059052,0.0,0.0,-0.3973827795760193,0.0,70.0,255.0,255.0,255.0
20,1.0,5.000000000000012,0.0,-0.26169516690040884,0.0,0.0,-0.47440171961371846,0.0,0.0,-0.39308856819005034,0.0,70.0,255.0,255.0,255.0
21,1.05,5.000000000000012,0.0,-0.2859064019006192,0.0,0.0,-0.4939558225249102,0.0,0.0,-0.3893575585748432,0.0,70.0,255.0,255.0,255.0
22,1.1,5.000000000000012,0.0,-0.31109074915289986,0.0,0.0,-0.5133374754712028,0.0,0.0,-0.38606963057035704,0.0,70.0,255.0,255.0,255.0
23,1.1500000000000001,5.000000000000012,0.0,-0.3372401494477395,0.0,0.0,-0.5325627855819459,0.0,0.0,-0.3829787602596946,0.0,70.0,255.0,255.0,255.0
24,1.2000000000000002,5.000000000000012,0.0,-0.36434702771109445,0.0,0.0,-0.5516353514971722,0.0,0.0,-0.3798313460045222,0.0,70.0,255.0,255.0,255.0
25,1.25,5.000000000000012,0.0,-0.3924036845974567,0.0,0.0,-0.5705459201823981,0.0,0.0,-0.3763749615854517,0.0,70.0,255.0,255.0,255.0
26,1.3,5.000000000000012,0.0,-0.42140161972933426,0.0,0.0,-0.5892728476557174,0.0,0.0,-0.3724751833293849,0.0,70.0,255.0,255.0,255.0
27,1.35,5.000000000000012,0.0,-0.45133096936302847,0.0,0.0,-0.6077934385153366,0.0,0.0,-0.36821202393030883,0.0,70.0,255.0,255.0,255.0
28,1.4000000000000001,5.000000000000012,0.0,-0.4821809635808679,0.0,0.0,-0.6260940500487483,0.0,0.0,-0.36376194452089616,0.0,70.0,255.0,255.0,255.0
29,1.4500000000000002,5.000000000000012,0.0,-0.5139403743679033,0.0,0.0,-0.6441696329674262,0.0,0.0,-0.3592989226529675,0.0,70.0,255.0,255.0,255.0
30,1.5,5.000000000000012,0.0,-0.5465979268776106,0.0,0.0,-0.662023942314045,0.0,0.0,-0.3549955481720657,0.0,70.0,255.0,255.0,255.0
31,1.55,5.000000000000012,0.0,-0.5801427685993078,0.0,0.0,-0.6796691877846328,0.0,0.0,-0.35094776871366085,0.0,70.0,255.0,255.0,255.0
32,1.6,5.000000000000012,0.0,-0.6145648456560738,0.0,0.0,-0.6971187191854111,0.0,0.0,-0.34711863734478987,0.0,70.0,255.0,255.0,255.0
33,1.6500000000000001,5.000000000000012,0.0,-0.6498546405178489,0.0,0.0,-0.7143810515191118,0.0,0.0,-0.34341793718125624,0.0,70.0,255.0,255.0,255.0
34,1.7000000000000002,5.000000000000012,0.0,-0.686002950807985,0.0,0.0,-0.7314605129035368,0.0,0.0,-0.33975916384981764,0.0,70.0,255.0,255.0,255.0
35,1.75,5.000000000000012,0.0,-0.7230006918082026,0.0,0.0,-0.7483569679040936,0.0,0.0,-0.3360508643742488,0.0,70.0,255.0,255.0,255.0
36,1.8,5.000000000000012,0.0,-0.7608386475983944,0.0,0.0,-0.7650655993409616,0.0,0.0,-0.3322409679231808,0.0,70.0,255.0,255.0,255.0
37,1.85,5.000000000000012,0.0,-0.7995072517422988,0.0,0.0,-0.7815810646964116,0.0,0.0,-0.32835435909153166,0.0,70.0,255.0,255.0,255.0
38,1.9000000000000001,5.000000000000012,0.0,-0.8389967540680355,0.0,0.0,-0.7979010352501148,0.0,0.0,-0.3244445351923697,0.0,70.0,255.0,255.0,255.0
39,1.9500000000000002,5.000000000000012,0.0,-0.8792973552673102,0.0,0.0,-0.8140255182156486,0.0,0.0,-0.3205582214814706,0.0,70.0,255.0,255.0,255.0
40,2.0,5.000000000000012,0.0,-0.9203993058896004,0.0,0.0,-0.8299568573982619,0.0,0.0,-0.31674896635885963,0.0,70.0,255.0,255.0,255.0
41,2.0500000000000003,5.000000000000012,0.0,-0.9622930410071364,0.0,0.0,-0.8457004148515346,0.0,0.0,-0.3130416463070107,0.0,70.0,255.0,255.0,255.0
42,2.1,5.000000000000012,0.0,-1.0049693473747539,0.0,0.0,-0.8612610220289629,0.0,0.0,-0.3093839262891751,0.0,70.0,255.0,255.0,255.0
43,2.15,5.000000000000012,0.0,-1.0484191432100327,0.0,0.0,-0.8766388074804521,0.0,0.0,-0.3056839220492602,0.0,70.0,255.0,255.0,255.0
44,2.2,5.000000000000012,0.0,-1.092633228122799,0.0,0.0,-0.891829414233889,0.0,0.0,-0.3018546635108921,0.0,70.0,255.0,255.0,255.0
45,2.25,5.000000000000012,0.0,-1.1376020846334216,0.0,0.0,-0.9068242738315413,0.0,0.0,-0.297805298162257,0.0,70.0,255.0,255.0,255.0
46,2.3000000000000003,5.000000000000012,0.0,-1.1833156555059532,0.0,0.0,-0.9216099440501146,0.0,0.0,-0.29349864731502695,0.0,70.0,255.0,255.0,255.0
47,2.35,5.000000000000012,0.0,-1.229763079038433,0.0,0.0,-0.936174138563044,0.0,0.0,-0.28903170731369165,0.0,70.0,255.0,255.0,255.0
48,2.4000000000000004,5.000000000000012,0.0,-1.2769330693622576,0.0,0.0,-0.9505131147814838,0.0,0.0,-0.28457884420971524,0.0,70.0,255.0,255.0,255.0
49,2.45,5.000000000000012,0.0,-1.3248143905165815,0.0,0.0,-0.9646320229840155,0.0,0.0,-0.2803158983675669,0.0,70.0,255.0,255.0,255.0
50,2.5,5.000000000000012,0.0,-1.3733962716606591,0.0,0.0,-0.9785447046182405,0.0,0.0,-0.27642182234397517,0.0,70.0,255.0,255.0,255.0
51,2.5500000000000003,5.000000000000012,0.0,-1.4226688609784055,0.0,0.0,-0.992274205218413,0.0,0.0,-0.27297756396673645,0.0,70.0,255.0,255.0,255.0
52,2.6,5.000000000000012,0.0,-1.4726236921825004,0.0,0.0,-1.0058424610149141,0.0,0.0,-0.26984476893172626,0.0,70.0,255.0,255.0,255.0
53,2.6500000000000004,5.000000000000012,0.0,-1.523253107079897,0.0,0.0,-1.0192586821115857,0.0,0.0,-0.26676433747558903,0.0,70.0,255.0,255.0,255.0
54,2.7,5.000000000000012,0.0,-1.574549560393659,0.0,0.0,-1.032518894762473,0.0,0.0,-0.26347568241282815,0.0,70.0,255.0,255.0,255.0
55,2.75,5.000000000000012,0.0,-1.6265049965561442,0.0,0.0,-1.0456062503528685,0.0,0.0,-0.25972344975782047,0.0,70.0,255.0,255.0,255.0
56,2.8000000000000003,5.000000000000012,0.0,-1.6791101854289459,0.0,0.0,-1.058491239738255,0.0,0.0,-0.25538401057088045,0.0,70.0,255.0,255.0,255.0
57,2.85,5.000000000000012,0.0,-1.7323541205299697,0.0,0.0,-1.0711446514099565,0.0,0.0,-0.2505963964467339,0.0,70.0,255.0,255.0,255.0
58,2.9000000000000004,5.000000000000012,0.0,-1.7862246505699415,0.0,0.0,-1.0835508793829285,0.0,0.0,-0.24563746556152122,0.0,70.0,255.0,255.0,255.0
59,2.95,5.000000000000012,0.0,-1.8407092084682626,0.0,0.0,-1.0957083979661086,0.0,0.0,-0.24078743258701962,0.0,70.0,255.0,255.0,255.0
60,3.0,5.000000000000012,0.0,-1.8957954903665524,0.0,0.0,-1.1076296226416305,0.0,0.0,-0.23631235065277867,0.0,70.0,255.0,255.0,255.0
61,3.0500000000000003,5.000000000000012,0.0,-1.9514721707324256,0.0,0.0,-1.1193396330313865,0.0,0.0,-0.23235296717643017,0.0,70.0,255.0,255.0,255.0
62,3.1,5.000000000000012,0.0,-2.007729453669691,0.0,0.0,-1.1308649193592735,0.0,0.0,-0.22884153339317592,0.0,70.0,255.0,255.0,255.0
63,3.1500000000000004,5.000000000000012,0.0,-2.064558662668353,0.0,0.0,-1.142223786370704,0.0,0.0,-0.225613912166156,0.0,70.0,255.0,255.0,255.0
64,3.2,5.000000000000012,0.0,-2.1219518323067614,0.0,0.0,-1.153426310575889,0.0,0.0,-0.22250130052583472,0.0,70.0,255.0,255.0,255.0
65,3.25,5.000000000000012,0.0,-2.179901293725942,0.0,0.0,-1.1644739164232876,0.0,0.0,-0.21934714763127694,0.0,70.0,255.0,255.0,255.0
66,3.3000000000000003,5.000000000000012,0.0,-2.23839922394909,0.0,0.0,-1.1753610253390168,0.0,0.0,-0.21605185965101192,0.0,70.0,255.0,255.0,255.0
67,3.35,5.000000000000012,0.0,-2.2974373962598436,0.0,0.0,-1.1860791023883888,0.0,0.0,-0.21256203874524537,0.0,70.0,255.0,255.0,255.0
68,3.4000000000000004,5.000000000000012,0.0,-2.357007134187929,0.0,0.0,-1.1966172292135413,0.0,0.0,-0.20882063868765677,0.0,70.0,255.0,255.0,255.0
69,3.45,5.000000000000012,0.0,-2.4170991191811977,0.0,0.0,-1.2069611662571544,0.0,0.0,-0.20476839095060484,0.0,70.0,255.0,255.0,255.0
70,3.5,5.000000000000012,0.0,-2.4777032508136445,0.0,0.0,-1.2170940683086018,0.0,0.0,-0.20034306814640246,0.0,70.0,255.0,255.0,255.0
71,3.5500000000000003,5.000000000000012,0.0,-2.538808526012058,0.0,0.0,-1.2269954730717947,0.0,0.0,-0.19553805575780459,0.0,70.0,255.0,255.0,255.0
72,3.6,5.000000000000012,0.0,-2.600402798120824,0.0,0.0,-1.2366478738843822,0.0,0.0,-0.19051292234828487,0.0,70.0,255.0,255.0,255.0
73,3.6500000000000004,5.000000000000012,0.0,-2.662473313400496,0.0,0.0,-1.2460467653066232,0.0,0.0,-0.18554343984344968,0.0,70.0,255.0,255.0,255.0
74,3.7,5.000000000000012,0.0,-2.7250074746514863,0.0,0.0,-1.2552022178687272,0.0,0.0,-0.18091688392343208,0.0,70.0,255.0,255.0,255.0
75,3.75,5.000000000000012,0.0,-2.787993535187369,0.0,0.0,-1.2641384536989664,0.0,0.0,-0.17691657045881826,0.0,70.0,255.0,255.0,255.0
76,3.8000000000000003,5.000000000000012,0.0,-2.851421320021383,0.0,0.0,-1.272893874914609,0.0,0.0,-0.17367022967200718,0.0,70.0,255.0,255.0,255.0
77,3.85,5.000000000000012,0.0,-2.9152829226788297,0.0,0.0,-1.281505476666167,0.0,0.0,-0.17097732081281514,0.0,70.0,255.0,255.0,255.0
78,3.9000000000000004,5.000000000000012,0.0,-2.9795718676879996,0.0,0.0,-1.2899916069958905,0.0,0.0,-0.16845287466589198,0.0,70.0,255.0,255.0,255.0
79,3.95,5.000000000000012,0.0,-3.0442820833784188,0.0,0.0,-1.2983507641327563,0.0,0.0,-0.16569852556993503,0.0,70.0,255.0,255.0,255.0
80,4.0,5.000000000000012,0.0,-3.1094069441012753,0.0,0.0,-1.306561459552884,0.0,0.0,-0.16231866866673883,0.0,70.0,255.0,255.0,255.0
81,4.05,5.000000000000012,0.0,-3.174938229333707,0.0,0.0,-1.3145826309994302,0.0,0.0,-0.15811445212765562,0.0,70.0,255.0,255.0,255.0
82,4.1000000000000005,5.000000000000012,0.0,-3.2408652072012183,0.0,0.0,-1.3223729047656496,0.0,0.0,-0.15326861025082295,0.0,70.0,255.0,255.0,255.0
83,4.15,5.000000000000012,0.0,-3.307175519810272,0.0,0.0,-1.3299094920245125,0.0,0.0,-0.14815424564242896,0.0,70.0,255.0,255.0,255.0
84,4.2,5.000000000000012,0.0,-3.3738561564036695,0.0,0.0,-1.3371883293298925,0.0,0.0,-0.14314887393678255,0.0,70.0,255.0,255.0,255.0
85,4.25,5.000000000000012,0.0,-3.4408943527432614,0.0,0.0,-1.3442243794181907,0.0,0.0,-0.13862870825414042,0.0,70.0,255.0,255.0,255.0
86,4.3,5.000000000000012,0.0,-3.5082785943454886,0.0,0.0,-1.3510512001553066,0.0,0.0,-0.13479130913651716,0.0,70.0,255.0,255.0,255.0
87,4.3500000000000005,5.000000000000012,0.0,-3.575999472758792,0.0,0.0,-1.3577035103318424,0.0,0.0,-0.13149919389441322,0.0,70.0,255.0,255.0,255.0
88,4.4,5.000000000000012,0.0,-3.644048945378673,0.0,0.0,-1.3642011195447479,0.0,0.0,-0.1284600262147606,0.0,70.0,255.0,255.0,255.0
89,4.45,5.000000000000012,0.0,-3.712419584713267,0.0,0.0,-1.3705495129533185,0.0,0.0,-0.1253856057231051,0.0,70.0,255.0,255.0,255.0
90,4.5,5.000000000000012,0.0,-3.7811038966740047,0.0,0.0,-1.3767396801170584,0.0,0.0,-0.12199055426029837,0.0,70.0,255.0,255.0,255.0
91,4.55,5.000000000000012,0.0,-3.8500935527249727,0.0,0.0,-1.3827485683793483,0.0,0.0,-0.11812096400634076,0.0,70.0,255.0,255.0,255.0
92,4.6000000000000005,5.000000000000012,0.0,-3.9193787535119395,0.0,0.0,-1.3885517765176925,0.0,0.0,-0.11386095449803513,0.0,70.0,255.0,255.0,255.0
93,4.65,5.000000000000012,0.0,-3.988948730376742,0.0,0.0,-1.3941346638291519,0.0,0.0,-0.10939847001196767,0.0,70.0,255.0,255.0,255.0
94,4.7,5.000000000000012,0.0,-4.058792219894855,0.0,0.0,-1.3994916235188892,0.0,0.0,-0.10491578941791424,0.0,70.0,255.0,255.0,255.0
95,4.75,5.000000000000012,0.0,-4.128897892728631,0.0,0.0,-1.4046262427709433,0.0,0.0,-0.10059303740810321,0.0,70.0,255.0,255.0,255.0
96,4.800000000000001,5.000000000000012,0.0,-4.199254844171949,0.0,0.0,-1.4095509272596995,0.0,0.0,-0.09653089544405802,0.0,70.0,255.0,255.0,255.0
97,4.8500000000000005,5.000000000000012,0.0,-4.269852985454601,0.0,0.0,-1.414279332315349,0.0,0.0,-0.09269335175021709,0.0,70.0,255.0,255.0,255.0
98,4.9,5.000000000000012,0.0,-4.340682777403484,0.0,0.0,-1.4188202624347213,0.0,0.0,-0.08899056926212623,0.0,70.0,255.0,255.0,255.0
99,4.95,5.000000000000012,0.0,-4.411735011698073,0.0,0.0,-1.4231783892415617,0.0,0.0,-0.08533743707150876,0.0,70.0,255.0,255.0,255.0
100,5.0,5.000000000000012,0.0,-4.48300061632764,0.0,0.0,-1.4273540061418721,0.0,0.0,-0.08164531475474135,0.0,70.0,255.0,255.0,255.0
101,5.050000000000001,5.000000000000012,0.0,-4.55447041231226,0.0,0.0,-1.4313429207170358,0.0,0.0,-0.07786268032408117,0.0,70.0,255.0,255.0,255.0
102,5.1000000000000005,5.000000000000012,0.0,-4.626134908399344,0.0,0.0,-1.4351402741742803,0.0,0.0,-0.07400657090270713,0.0,70.0,255.0,255.0,255.0
103,5.15,5.000000000000012,0.0,-4.697984439729688,0.0,0.0,-1.4387435778073066,0.0,0.0,-0.0701174813785066,0.0,70.0,255.0,255.0,255.0
104,5.2,5.000000000000012,0.0,-4.770009266180074,0.0,0.0,-1.442152022312131,0.0,0.0,-0.06622826183013686,0.0,70.0,255.0,255.0,255.0
105,5.25,5.000000000000012,0.0,-4.842199641960901,0.0,0.0,-1.4453664039903202,0.0,0.0,-0.06237367560029128,0.0,70.0,255.0,255.0,255.0
106,5.300000000000001,5.000000000000012,0.0,-4.914545906579106,0.0,0.0,-1.44838938987216,0.0,0.0,-0.058571669972096174,0.0,70.0,255.0,255.0,255.0
107,5.3500000000000005,5.000000000000012,0.0,-4.987038580948117,0.0,0.0,-1.4512235709875299,0.0,0.0,-0.054800364638829535,0.0,70.0,255.0,255.0,255.0
108,5.4,5.000000000000012,0.0,-5.059668263677859,0.0,0.0,-1.453869426336043,0.0,0.0,-0.051019505224125794,0.0,70.0,255.0,255.0,255.0
109,5.45,5.000000000000012,0.0,-5.1324255235817215,0.0,0.0,-1.4563255215099424,0.0,0.0,-0.04719622889544084,0.0,70.0,255.0,255.0,255.0
110,5.5,5.000000000000012,0.0,-5.205300815828854,0.0,0.0,-1.458589049225587,0.0,0.0,-0.043312010815910185,0.0,70.0,255.0,255.0,255.0
111,5.550000000000001,5.000000000000012,0.0,-5.27828442850428,0.0,0.0,-1.4606567225915335,0.0,0.0,-0.039356840253468306,0.0,70.0,255.0,255.0,255.0
112,5.6000000000000005,5.000000000000012,0.0,-5.351366488088007,0.0,0.0,-1.462524733250934,0.0,0.0,-0.03531374210359317,0.0,70.0,255.0,255.0,255.0
113,5.65,5.000000000000012,0.0,-5.424536901829374,0.0,0.0,-1.4641880968018928,0.0,0.0,-0.03116356532393283,0.0,70.0,255.0,255.0,255.0
114,5.7,5.000000000000012,0.0,-5.497785297768196,0.0,0.0,-1.4656410897833272,0.0,0.0,-0.026893023055052367,0.0,70.0,255.0,255.0,255.0
115,5.75,5.000000000000012,0.0,-5.571101010807706,0.0,0.0,-1.466877399107398,0.0,0.0,-0.022474318431875417,0.0,70.0,255.0,255.0,255.0
116,5.800000000000001,5.000000000000012,0.0,-5.644473037678936,0.0,0.0,-1.4678885216265147,0.0,0.0,-0.01790716947978055,0.0,70.0,255.0,255.0,255.0
117,5.8500000000000005,5.000000000000012,0.0,-5.717889862970358,0.0,0.0,-1.468668116055376,0.0,0.0,-0.013303734545733192,0.0,70.0,255.0,255.0,255.0
118,5.9,5.000000000000012,0.0,-5.791339849284474,0.0,0.0,-1.469218895081088,0.0,0.0,-0.008848005041972584,0.0,70.0,255.0,255.0,255.0
119,5.95,5.000000000000012,0.0,-5.864811752478467,0.0,0.0,-1.4695529165595733,0.0,0.0,-0.00471773949097809,0.0,70.0,255.0,255.0,255.0
120,6.0,5.000000000000012,0.0,-5.938295140940431,0.0,0.0,-1.4696906690301859,0.0,0.0,-0.0010866595123282252,0.0,70.0,255.0,255.0,255.0
121,6.050000000000001,5.000000000000012,0.0,-6.011780819381485,0.0,0.0,-1.4696615825108061,0.0,0.0,0.001977406285025296,0.0,70.0,255.0,255.0,255.0
122,6.1000000000000005,5.000000000000012,0.0,-6.085261299191512,0.0,0.0,-1.4694929284016833,0.0,0.0,0.004653994971537401,0.0,70.0,255.0,255.0,255.0
123,6.15,5.000000000000012,0.0,-6.158730112221654,0.0,0.0,-1.4691961830136524,0.0,0.0,0.00727278828884792,0.0,70.0,255.0,255.0,255.0
124,6.2,5.000000000000012,0.0,-6.232180917492877,0.0,0.0,-1.4687656495727985,0.0,0.0,0.010175729270933687,0.0,70.0,255.0,255.0,255.0
125,6.25,5.000000000000012,0.0,-6.305606677178933,0.0,0.0,-1.468178610086559,0.0,0.0,0.013700956481077498,0.0,70.0,255.0,255.0,255.0
126,6.300000000000001,5.000000000000012,0.0,-6.378998778501533,0.0,0.0,-1.4673955539246908,0.0,0.0,0.018011343873691743,0.0,70.0,255.0,255.0,255.0
127,6.3500000000000005,5.000000000000012,0.0,-6.4523462325714025,0.0,0.0,-1.4663774756991899,0.0,0.0,0.022917871209759966,0.0,70.0,255.0,255.0,255.0
128,6.4,5.000000000000012,0.0,-6.525636526071452,0.0,0.0,-1.4651037668037148,0.0,0.0,0.02804589617548814,0.0,70.0,255.0,255.0,255.0
129,6.45,5.000000000000012,0.0,-6.598856609251774,0.0,0.0,-1.463572886081641,0.0,0.0,0.03300876180096779,0.0,70.0,255.0,255.0,255.0
130,6.5,5.000000000000012,0.0,-6.671993814679616,0.0,0.0,-1.461802890623618,0.0,0.0,0.0374108522356309,0.0,70.0,255.0,255.0,255.0
131,6.550000000000001,5.000000000000012,0.0,-6.745036898314136,0.0,0.0,-1.459831800858078,0.0,0.0,0.04105115761392497,0.0,70.0,255.0,255.0,255.0
132,6.6000000000000005,5.000000000000012,0.0,-6.817976994765424,0.0,0.0,-1.4576977748622255,0.0,0.0,0.04412356447893728,0.0,70.0,255.0,255.0,255.0
133,6.65,5.000000000000012,0.0,-6.890806675800358,0.0,0.0,-1.4554194444101842,0.0,0.0,0.047013743559620735,0.0,70.0,255.0,255.0,255.0
134,6.7,5.000000000000012,0.0,-6.963518939206442,0.0,0.0,-1.4529964005062634,0.0,0.0,0.05010288319837741,0.0,70.0,255.0,255.0,255.0
135,6.75,5.000000000000012,0.0,-7.036106315850985,0.0,0.0,-1.4504091560903465,0.0,0.0,0.053779550660593145,0.0,70.0,255.0,255.0,255.0
136,6.800000000000001,5.000000000000012,0.0,-7.108559854815477,0.0,0.0,-1.4476184454402041,0.0,0.0,0.05823717252360083,0.0,70.0,255.0,255.0,255.0
137,6.8500000000000005,5.000000000000012,0.0,-7.180868160395005,0.0,0.0,-1.4445854388379864,0.0,0.0,0.06325975898660019,0.0,70.0,255.0,255.0,255.0
138,6.9,5.000000000000012,0.0,-7.253018398699275,0.0,0.0,-1.441292469541544,0.0,0.0,0.06842724147482215,0.0,70.0,255.0,255.0,255.0
139,6.95,5.000000000000012,0.0,-7.3249974073491595,0.0,0.0,-1.4377427146905042,0.0,0.0,0.07332655855138981,0.0,70.0,255.0,255.0,255.0
140,7.0,5.000000000000012,0.0,-7.396792670168326,0.0,0.0,-1.4339598136864051,0.0,0.0,0.07754702903772781,0.0,70.0,255.0,255.0,255.0
141,7.050000000000001,5.000000000000012,0.0,-7.4683933887178,0.0,0.0,-1.4299880117867314,0.0,0.0,0.08088649261850378,0.0,70.0,255.0,255.0,255.0
142,7.1000000000000005,5.000000000000012,0.0,-7.539791471346999,0.0,0.0,-1.4258711644245547,0.0,0.0,0.083567283024788,0.0,70.0,255.0,255.0,255.0
143,7.15,5.000000000000012,0.0,-7.6109805051602555,0.0,0.0,-1.4216312834842526,0.0,0.0,0.08602824625247862,0.0,70.0,255.0,255.0,255.0
144,7.2,5.000000000000012,0.0,-7.681954599695424,0.0,0.0,-1.4172683397993069,0.0,0.0,0.08871022991527866,0.0,70.0,255.0,255.0,255.0
145,7.25,5.000000000000012,0.0,-7.752707339140186,0.0,0.0,-1.4127602604927247,0.0,0.0,0.09205228656830045,0.0,70.0,255.0,255.0,255.0
146,7.300000000000001,5.000000000000012,0.0,-7.823230625744697,0.0,0.0,-1.4080631111424768,0.0,0.0,0.09627671714165231,0.0,70.0,255.0,255.0,255.0
147,7.3500000000000005,5.000000000000012,0.0,-7.893513650254434,0.0,0.0,-1.4031325887785595,0.0,0.0,0.10118029306278586,0.0,70.0,255.0,255.0,255.0
148,7.4,5.000000000000012,0.0,-7.963543884622553,0.0,0.0,-1.3979450818361983,0.0,0.0,0.10635058936729891,0.0,70.0,255.0,255.0,255.0
149,7.45,5.000000000000012,0.0,-8.033308158438054,0.0,0.0,-1.3924975298418296,0.0,0.0,0.11137266164844561,0.0,70.0,255.0,255.0,255.0
150,7.5,5.000000000000012,0.0,-8.102793637606736,0.0,0.0,-1.3868078156713537,0.0,0.0,0.11582387130815164,0.0,70.0,255.0,255.0,255.0
151,7.550000000000001,5.000000000000012,0.0,-8.171988940005189,0.0,0.0,-1.3809151427110145,0.0,0.0,0.119487291494913,0.0,70.0,255.0,255.0,255.0
152,7.6000000000000005,5.000000000000012,0.0,-8.240885151877837,0.0,0.0,-1.3748590865218624,0.0,0.0,0.12256058901307654,0.0,70.0,255.0,255.0,255.0
153,7.65,5.000000000000012,0.0,-8.309474848657375,0.0,0.0,-1.3686590838097068,0.0,0.0,0.1254395128292174,0.0,70.0,255.0,255.0,255.0
154,7.7,5.000000000000012,0.0,-8.377751060258808,0.0,0.0,-1.3623151352389407,0.0,0.0,0.1285127831652133,0.0,70.0,255.0,255.0,255.0
155,7.75,5.000000000000012,0.0,-8.44570636218127,0.0,0.0,-1.3558078054931855,0.0,0.0,0.13217614428207014,0.0,70.0,255.0,255.0,255.0
156,7.800000000000001,5.000000000000012,0.0,-8.513331840808126,0.0,0.0,-1.3490975208107336,0.0,0.0,0.13662726373180334,0.0,70.0,255.0,255.0,255.0
157,7.8500000000000005,5.000000000000012,0.0,-8.580616114262343,0.0,0.0,-1.3421450791200051,0.0,0.0,0.14164923899748771,0.0,70.0,255.0,255.0,255.0
158,7.9,5.000000000000012,0.0,-8.647546348720127,0.0,0.0,-1.3349325969109849,0.0,0.0,0.14681947120376293,0.0,70.0,255.0,255.0,255.0
159,7.95,5.000000000000012,0.0,-8.714109373953441,0.0,0.0,-1.3274631319996288,0.0,0.0,0.15172305883766057,0.0,70.0,255.0,255.0,255.0
160,8.0,5.000000000000012,0.0,-8.78029266192009,0.0,0.0,-1.3197602910272188,0.0,0.0,0.15594763547994717,0.0,70.0,255.0,255.0,255.0
161,8.05,5.000000000000012,0.0,-8.846085403056163,0.0,0.0,-1.3118683684516341,0.0,0.0,0.1592899939037551,0.0,70.0,255.0,255.0,255.0
162,8.1,5.000000000000012,0.0,-8.911479498765253,0.0,0.0,-1.3038312916368433,0.0,0.0,0.1619723384466809,0.0,70.0,255.0,255.0,255.0
163,8.15,5.000000000000012,0.0,-8.976468532219847,0.0,0.0,-1.295671134606966,0.0,0.0,0.1644335580660794,0.0,70.0,255.0,255.0,255.0
164,8.200000000000001,5.000000000000012,0.0,-9.04104661222595,0.0,0.0,-1.2873879358302354,0.0,0.0,0.16711432880267552,0.0,70.0,255.0,255.0,255.0
165,8.25,5.000000000000012,0.0,-9.105207325802871,0.0,0.0,-1.2789597017266985,0.0,0.0,0.170453267179127,0.0,70.0,255.0,255.0,255.0
166,8.3,5.000000000000012,0.0,-9.16894258239862,0.0,0.0,-1.2703426091123227,0.0,0.0,0.17467262079460255,0.0,70.0,255.0,255.0,255.0
167,8.35,5.000000000000012,0.0,-9.232241586714103,0.0,0.0,-1.2614924396472382,0.0,0.0,0.17957059136541886,0.0,70.0,255.0,255.0,255.0
168,8.4,5.000000000000012,0.0,-9.295091826363343,0.0,0.0,-1.2523855499757808,0.0,0.0,0.18473711238122803,0.0,70.0,255.0,255.0,255.0
169,8.450000000000001,5.000000000000012,0.0,-9.357480141711681,0.0,0.0,-1.2430187284091154,0.0,0.0,0.1897597658102157,0.0,70.0,255.0,255.0,255.0
170,8.5,5.000000000000012,0.0,-9.419393699204255,0.0,0.0,-1.2334095733947592,0.0,0.0,0.19421934242451755,0.0,70.0,255.0,255.0,255.0
171,8.55,5.000000000000012,0.0,-9.480821099051157,0.0,0.0,-1.2235967941666637,0.0,0.0,0.19790017559984108,0.0,70.0,255.0,255.0,255.0
172,8.6,5.000000000000012,0.0,-9.541753378620921,0.0,0.0,-1.213619555834775,0.0,0.0,0.2009943403807668,0.0,70.0,255.0,255.0,255.0
173,8.65,5.000000000000012,0.0,-9.602183054634635,0.0,0.0,-1.203497360128587,0.0,0.0,0.20388810895859422,0.0,70.0,255.0,255.0,255.0
174,8.700000000000001,5.000000000000012,0.0,-9.66210311463378,0.0,0.0,-1.1932307449389157,0.0,0.0,0.20696026762951902,0.0,70.0,255.0,255.0,255.0
175,8.75,5.000000000000012,0.0,-9.721506129128526,0.0,0.0,-1.182801333365635,0.0,0.0,0.2105932792073162,0.0,70.0,255.0,255.0,255.0
176,8.8,5.000000000000012,0.0,-9.780383247970343,0.0,0.0,-1.172171417018184,0.0,0.0,0.21497982365872303,0.0,70.0,255.0,255.0,255.0
177,8.85,5.000000000000012,0.0,-9.838723270830345,0.0,0.0,-1.1613033509997628,0.0,0.0,0.21992393522243248,0.0,70.0,255.0,255.0,255.0
178,8.9,5.000000000000012,0.0,-9.89651358307032,0.0,0.0,-1.1501790234959408,0.0,0.0,0.22503856367386277,0.0,70.0,255.0,255.0,255.0
179,8.950000000000001,5.000000000000012,0.0,-9.953741173179939,0.0,0.0,-1.1387994946323765,0.0,0.0,0.22994601681816107,0.0,70.0,255.0,255.0,255.0
180,9.0,5.000000000000012,0.0,-10.010393532533557,0.0,0.0,-1.1271844218141247,0.0,0.0,0.23428362466137997,0.0,70.0,255.0,255.0,255.0
181,9.05,5.000000000000012,0.0,-10.066459615361351,0.0,0.0,-1.1153711321662385,0.0,0.0,0.23786687009206275,0.0,70.0,255.0,255.0,255.0
182,9.1,5.000000000000012,0.0,-10.121930645750181,0.0,0.0,-1.1033977348049184,0.0,0.0,0.24083980217941559,0.0,70.0,255.0,255.0,255.0
183,9.15,5.000000000000012,0.0,-10.176799388841843,0.0,0.0,-1.091287151948297,0.0,0.0,0.24350859205721775,0.0,70.0,255.0,255.0,255.0
184,9.200000000000001,5.000000000000012,0.0,-10.231059360945011,0.0,0.0,-1.0790468755991967,0.0,0.0,0.2461817257040977,0.0,70.0,255.0,255.0,255.0
185,9.25,5.000000000000012,0.0,-10.284704076401763,0.0,0.0,-1.0666689793778872,0.0,0.0,0.2491442034990854,0.0,70.0,255.0,255.0,255.0
186,9.3,5.000000000000012,0.0,-10.3377262588828,0.0,0.0,-1.0541324552492881,0.0,0.0,0.2525587565795462,0.0,70.0,255.0,255.0,255.0
187,9.35,5.000000000000012,0.0,-10.390117321926692,0.0,0.0,-1.0414131037199326,0.0,0.0,0.2564278117711538,0.0,70.0,255.0,255.0,255.0
188,9.4,5.000000000000012,0.0,-10.441867569254793,0.0,0.0,-1.0284896740721727,0.0,0.0,0.2606969515472457,0.0,70.0,255.0,255.0,255.0
189,9.450000000000001,5.000000000000012,0.0,-10.492966289333909,0.0,0.0,-1.015343408565208,0.0,0.0,0.2653065675460198,0.0,70.0,255.0,255.0,255.0
190,9.5,5.000000000000012,0.0,-10.543401910111314,0.0,0.0,-1.0019590173175708,0.0,0.0,0.2702075333690601,0.0,70.0,255.0,255.0,255.0
191,9.55,5.000000000000012,0.0,-10.593162191065666,0.0,0.0,-0.988322655228302,0.0,0.0,0.2753401548703849,0.0,70.0,255.0,255.0,255.0
192,9.600000000000001,5.000000000000012,0.0,-10.642234175634144,0.0,0.0,-0.9744250018305323,0.0,0.0,0.2805299763780411,0.0,70.0,255.0,255.0,255.0
193,9.65,5.000000000000012,0.0,-10.69060469124872,0.0,0.0,-0.9602696575904979,0.0,0.0,0.28549921947025325,0.0,70.0,255.0,255.0,255.0
194,9.700000000000001,5.000000000000012,0.0,-10.738261141393194,0.0,0.0,-0.9458750798835069,0.0,0.0,0.28996076868050835,0.0,70.0,255.0,255.0,255.0
195,9.75,5.000000000000012,0.0,-10.78519219923707,0.0,0.0,-0.931273580722447,0.0,0.0,0.2936336816706131,0.0,70.0,255.0,255.0,255.0
196,9.8,5.000000000000012,0.0,-10.831388499465438,0.0,0.0,-0.9165117117164456,0.0,0.0,0.29640528594327975,0.0,70.0,255.0,255.0,255.0
197,9.850000000000001,5.000000000000012,0.0,-10.876843370408714,0.0,0.0,-0.9016330521281191,0.0,0.0,0.29854207292920876,0.0,70.0,255.0,255.0,255.0
198,9.9,5.000000000000012,0.0,-10.92155180467825,0.0,0.0,-0.8866575044235248,0.0,0.0,0.30053973700514547,0.0,70.0,255.0,255.0,255.0
199,9.950000000000001,5.000000000000012,0.0,-10.965509120851067,0.0,0.0,-0.8715790784276045,0.0,0.0,0.30291487987490484,0.0,70.0,255.0,255.0,255.0
200,10.0,5.000000000000012,0.0,-11.00870971252101,0.0,0.0,-0.8563660164360343,0.0,0.0,0.30617373062522546,0.0,70.0,255.0,255.0,255.0
201,10.05,5.000000000000012,0.0,-11.05114572249467,0.0,0.0,-0.840961705365082,0.0,0.0,0.3105657876034229,0.0,70.0,255.0,255.0,255.0
202,10.100000000000001,5.000000000000012,0.0,-11.092805883057519,0.0,0.0,-0.825309437675692,0.0,0.0,0.3158464405300876,0.0,70.0,255.0,255.0,255.0
203,10.15,5.000000000000012,0.0,-11.13367666626224,0.0,0.0,-0.8093770613120732,0.0,0.0,0.3215162847244102,0.0,70.0,255.0,255.0,255.0
204,10.200000000000001,5.000000000000012,0.0,-11.173743589188726,0.0,0.0,-0.793157809203251,0.0,0.0,0.32706036449976494,0.0,70.0,255.0,255.0,255.0
205,10.25,5.000000000000012,0.0,-11.212992447182565,0.0,0.0,-0.7766710248620967,0.0,0.0,0.3319634238010849,0.0,70.0,255.0,255.0,255.0
206,10.3,5.000000000000012,0.0,-11.251410691674936,0.0,0.0,-0.7599614668231425,0.0,0.0,0.3359527291436848,0.0,70.0,255.0,255.0,255.0
207,10.350000000000001,5.000000000000012,0.0,-11.288988593864879,0.0,0.0,-0.7430757519477282,0.0,0.0,0.33920484560230335,0.0,70.0,255.0,255.0,255.0
208,10.4,5.000000000000012,0.0,-11.325718266869709,0.0,0.0,-0.7260409822629121,0.0,0.0,0.3421007651233765,0.0,70.0,255.0,255.0,255.0
209,10.450000000000001,5.000000000000012,0.0,-11.36159269209117,0.0,0.0,-0.7088656754353906,0.0,0.0,0.3450178346202648,0.0,70.0,255.0,255.0,255.0
210,10.5,5.000000000000012,0.0,-11.396604834413248,0.0,0.0,-0.6915391988008857,0.0,0.0,0.34834049957908064,0.0,70.0,255.0,255.0,255.0
211,10.55,5.000000000000012,0.0,-11.430746611971259,0.0,0.0,-0.6740316254774825,0.0,0.0,0.35227541703317655,0.0,70.0,255.0,255.0,255.0
212,10.600000000000001,5.000000000000012,0.0,-11.464007996960996,0.0,0.0,-0.656311657097568,0.0,0.0,0.3566869043327259,0.0,70.0,255.0,255.0,255.0
213,10.65,5.000000000000012,0.0,-11.496377777681015,0.0,0.0,-0.6383629350442099,0.0,0.0,0.36128960583141634,0.0,70.0,255.0,255.0,255.0
214,10.700000000000001,5.000000000000012,0.0,-11.527844290465417,0.0,0.0,-0.6201826965144264,0.0,0.0,0.36581412452445505,0.0,70.0,255.0,255.0,255.0
215,10.75,5.000000000000012,0.0,-11.558396047332458,0.0,0.0,-0.6017815225917644,0.0,0.0,0.3699946711217095,0.0,70.0,255.0,255.0,255.0
216,10.8,5.000000000000012,0.0,-11.588022442724593,0.0,0.0,-0.5831832294022554,0.0,0.0,0.373692455870156,0.0,70.0,255.0,255.0,255.0
217,10.850000000000001,5.000000000000012,0.0,-11.616714370272684,0.0,0.0,-0.5644122770047488,0.0,0.0,0.37701294499399296,0.0,70.0,255.0,255.0,255.0
218,10.9,5.000000000000012,0.0,-11.644463670425068,0.0,0.0,-0.5454819349028561,0.0,0.0,0.3801754036263816,0.0,70.0,255.0,255.0,255.0
219,10.950000000000001,5.000000000000012,0.0,-11.67126256376297,0.0,0.0,-0.5263947366421107,0.0,0.0,0.38338552742125387,0.0,70.0,255.0,255.0,255.0
220,11.0,5.000000000000012,0.0,-11.69710314408928,0.0,0.0,-0.5071433821607307,0.0,0.0,0.386812750665122,0.0,70.0,255.0,255.0,255.0
221,11.05,5.000000000000012,0.0,-11.721976901979042,0.0,0.0,-0.4877134615755985,0.0,0.0,0.39055513244594664,0.0,70.0,255.0,255.0,255.0
222,11.100000000000001,5.000000000000012,0.0,-11.74587449024684,0.0,0.0,-0.4680878689161361,0.0,0.0,0.3946541362060074,0.0,70.0,255.0,255.0,255.0
223,11.15,5.000000000000012,0.0,-11.768785688870656,0.0,0.0,-0.44824804795499773,0.0,0.0,0.3991351199898574,0.0,70.0,255.0,255.0,255.0
224,11.200000000000001,5.000000000000012,0.0,-11.790699295042339,0.0,0.0,-0.42817435691715033,0.0,0.0,0.4040444184695957,0.0,70.0,255.0,255.0,255.0
225,11.25,5.000000000000012,0.0,-11.811603124562371,0.0,0.0,-0.40784360610803816,0.0,0.0,0.4095783821620458,0.0,70.0,255.0,255.0,255.0
226,11.3,5.000000000000012,0.0,-11.831483655653143,0.0,0.0,-0.38721651870094576,0.0,0.0,0.41576664138691655,0.0,70.0,255.0,255.0,255.0
227,11.350000000000001,5.000000000000012,0.0,-11.850324776432466,0.0,0.0,-0.3662669419693465,0.0,0.0,0.42190039363205756,0.0,70.0,255.0,255.0,255.0
228,11.4,5.000000000000012,0.0,-11.868110349850078,0.0,0.0,-0.34502647933774,0.0,0.0,0.42683507212455396,0.0,70.0,255.0,255.0,255.0
229,11.450000000000001,5.000000000000012,0.0,-11.88482742436624,0.0,0.0,-0.3235834347568911,0.0,0.0,0.42935614602104266,0.0,70.0,255.0,255.0,255.0
230,11.5,5.000000000000012,0.0,-11.900468693325767,0.0,0.0,-0.30209086473563573,0.0,0.0,0.4276936740669868,0.0,70.0,255.0,255.0,255.0
231,11.55,5.000000000000012,0.0,-11.915036510839803,0.0,0.0,-0.28081406735019243,0.0,0.0,0.42123816214338916,0.0,70.0,255.0,255.0,255.0
232,11.600000000000001,5.000000000000012,0.0,-11.928550100060786,0.0,0.0,-0.2599670485212968,0.0,0.0,0.41325347341416574,0.0,70.0,255.0,255.0,255.0
233,11.65,5.000000000000012,0.0,-11.941033215691933,0.0,0.0,-0.23948872000877586,0.0,0.0,0.40921540736480466,0.0,70.0,255.0,255.0,255.0
234,11.700000000000001,5.000000000000012,0.0,-11.952498972061663,0.0,0.0,-0.21904550778481635,0.0,0.0,0.4147167317135825,0.0,70.0,255.0,255.0,255.0
235,11.75,5.000000000000012,0.0,-11.962937766470414,0.0,0.0,-0.1980170468374176,0.0,0.0,0.43683032483272655,0.0,70.0,255.0,255.0,255.0
236,11.8,5.000000000000012,0.0,-11.972300676745405,0.0,0.0,-0.1753624753015437,0.0,0.0,0.4781987519958619,0.0,70.0,255.0,255.0,255.0
237,11.850000000000001,5.000000000000012,0.0,-11.980474014000569,0.0,0.0,-0.15019717163783142,0.0,0.0,0.5280940110791832,0.0,70.0,255.0,255.0,255.0
238,11.9,5.000000000000012,0.0,-11.987320393909188,0.0,0.0,-0.12255307419362538,0.0,0.0,0.5681548601879527,0.0,70.0,255.0,255.0,255.0
239,11.950000000000001,5.000000000000012,0.0,-11.992729321419931,0.0,0.0,-0.09338168561903615,0.0,0.0,0.5811296543978273,0.0,70.0,255.0,255.0,255.0
240,12.0,5.000000000000012,0.0,-11.996658562471092,0.0,0.0,-0.06444010875384265,0.0,0.0,0.5514530918713234,0.0,70.0,255.0,255.0,255.0
241,12.05,5.000000000000012,0.0,-11.999173332295316,0.0,0.0,-0.03823637643190381,0.0,0.0,0.47253391612027684,0.0,70.0,255.0,255.0,255.0
242,12.100000000000001,5.000000000000012,0.0,-12.000482200114282,0.0,0.0,-0.017186717141814967,0.0,0.0,0.3557142584918793,0.0,70.0,255.0,255.0,255.0
243,12.15,5.000000000000012,0.0,-12.000892004009497,0.0,0.0,-0.002664950582715875,0.0,0.0,0.2231922847498069,0.0,70.0,255.0,255.0,255.0
244,12.200000000000001,5.000000000000012,0.0,-12.000748695172554,0.0,0.0,0.0051325113331657235,0.0,0.0,0.09875998869190994,0.0,70.0,255.0,255.0,255.0
245,12.25,5.000000000000012,0.0,-12.00037875287618,0.0,0.0,0.007211048286475119,0.0,0.0,0.005233484838562674,0.0,70.0,255.0,255.0,255.0
246,12.3,5.000000000000012,0.0,-12.000027590343906,0.0,0.0,0.005655859817021991,0.0,0.0,-0.04517805284312004,0.0,70.0,255.0,255.0,255.0
247,12.350000000000001,5.000000000000012,0.0,-11.999813166894478,0.0,0.0,0.002693243002163115,0.0,0.0,-0.05738200075668942,0.0,70.0,255.0,255.0,255.0
248,12.4,5.000000000000012,0.0,-11.99975826604369,0.0,0.0,-8.234025864695127e-05,0.0,0.0,-0.04400017634225151,0.0,70.0,255.0,255.0,255.0
249,12.450000000000001,5.000000000000012,0.0,-11.999821400920343,0.0,0.0,-0.0017067746320620358,0.0,0.0,-0.018673665109325555,0.0,70.0,255.0,255.0,255.0
250,12.5,5.000000000000012,0.0,-11.999928943506896,0.0,0.0,-0.0019497067695795067,0.0,0.0,0.003715532877457406,0.0,70.0,255.0,255.0,255.0
251,12.55,5.000000000000012,0.0,-12.000016371597301,0.0,0.0,-0.0013352213443162952,0.0,0.0,0.014252700844785693,0.0,70.0,255.0,255.0,255.0
252,12.600000000000001,5.000000000000012,0.0,-12.000062465641328,0.0,0.0,-0.0005244366851009374,0.0,0.0,0.014761063883028669,0.0,70.0,255.0,255.0,255.0
253,12.65,5.000000000000012,0.0,-12.000068815265811,0.0,0.0,0.00014088504398657165,0.0,0.0,0.010221940434007593,0.0,70.0,255.0,255.0,255.0
254,12.700000000000001,5.000000000000012,0.0,-12.00004837713693,0.0,0.0,0.0004977573582998218,0.0,0.0,0.003867538876889398,0.0,70.0,255.0,255.0,255.0
255,12.75,5.000000000000012,0.0,-12.000019039529981,0.0,0.0,0.0005276389316755115,0.0,0.0,-0.0013998587739649793,0.0,70.0,255.0,255.0,255.0
256,12.8,5.000000000000012,0.0,-11.999995613243762,0.0,0.0,0.0003577714809033239,0.0,0.0,-0.0038711654545053875,0.0,70.0,255.0,255.0,255.0
257,12.850000000000001,5.000000000000012,0.0,-11.99998326238189,0.0,0.0,0.0001405223862249727,0.0,0.0,-0.003955215146511648,0.0,70.0,255.0,255.0,255.0
258,12.9,5.000000000000012,0.0,-11.99998156100514,0.0,0.0,-3.7750033747840916e-05,0.0,0.0,-0.002738960683856817,0.0,70.0,255.0,255.0,255.0
259,12.950000000000001,5.000000000000012,0.0,-11.999987037385266,0.0,0.0,-0.000133373682160709,0.0,0.0,-0.0010363039187666345,0.0,70.0,255.0,255.0,255.0
260,13.0,5.000000000000012,0.0,-11.999994898373355,0.0,0.0,-0.00014138042562450437,0.0,0.0,0.00037509102757127266,0.0,70.0,255.0,255.0,255.0
261,13.05,5.000000000000012,0.0,-12.000001175427828,0.0,0.0,-9.586457940358173e-05,0.0,0.0,0.0010372756566567887,0.0,70.0,255.0,255.0,255.0
262,13.100000000000001,5.000000000000012,0.0,-12.000004484831296,0.0,0.0,-3.76528599588255e-05,0.0,0.0,0.0010597967046166445,0.0,70.0,255.0,255.0,255.0
263,13.15,5.000000000000012,0.0,-12.000004940713824,0.0,0.0,1.0115091058082726e-05,0.0,0.0,0.0007339023040842108,0.0,70.0,255.0,255.0,255.0
264,13.200000000000001,5.000000000000012,0.0,-12.00000347332219,0.0,0.0,3.5737370449595574e-05,0.0,0.0,0.00027767679817713997,0.0,70.0,255.0,255.0,255.0
265,13.25,5.000000000000012,0.0,-12.000001366976779,0.0,0.0,3.788277087579672e-05,0.0,0.0,-0.0001005053382741039,0.0,70.0,255.0,255.0,255.0
266,13.3,5.000000000000012,0.0,-11.999999685045102,0.0,0.0,2.5686836622185183e-05,0.0,0.0,-0.00027793717460866674,0.0,70.0,255.0,255.0,255.0
267,13.350000000000001,5.000000000000012,0.0,-11.999998798293117,0.0,0.0,1.008905341493005e-05,0.0,0.0,-0.000283971670889116,0.0,70.0,255.0,255.0,255.0
268,13.4,5.000000000000012,0.0,-11.99999867613976,0.0,0.0,-2.7103304667264183e-06,0.0,0.0,-0.00019664852981549075,0.0,70.0,255.0,255.0,255.0
269,13.450000000000001,5.000000000000012,0.0,-11.999999069326163,0.0,0.0,-9.575799566619025e-06,0.0,0.0,-7.440327394192536e-05,0.0,70.0,255.0,255.0,255.0
270,13.5,5.000000000000012,0.0,-11.999999633719717,0.0,0.0,-1.0150657860918955e-05,0.0,0.0,2.6930324281693174e-05,0.0,70.0,255.0,255.0,255.0
271,13.55,5.000000000000012,0.0,-12.00000008439195,0.0,0.0,-6.882767138449708e-06,0.0,0.0,7.447304142260691e-05,0.0,70.0,255.0,255.0,255.0
272,13.600000000000001,5.000000000000012,0.0,-12.000000321996431,0.0,0.0,-2.7033537186582635e-06,0.0,0.0,7.608998036090497e-05,0.0,70.0,255.0,255.0,255.0
273,13.65,5.000000000000012,0.0,-12.000000354727321,0.0,0.0,7.262308976407894e-07,0.0,0.0,5.2691814822480865e-05,0.0,70.0,255.0,255.0,255.0
274,13.700000000000001,5.000000000000012,0.0,-12.000000249373342,0.0,0.0,2.565827763589823e-06,0.0,0.0,1.9936296880018745e-05,0.0,70.0,255.0,255.0,255.0
275,13.75,5.000000000000012,0.0,-12.000000098144545,0.0,0.0,2.719860585642664e-06,0.0,0.0,-7.215958852668791e-06,0.0,70.0,255.0,255.0,255.0
276,13.8,5.000000000000012,0.0,-11.999999977387283,0.0,0.0,1.8442318783229439e-06,0.0,0.0,-1.9954991437032277e-05,0.0,70.0,255.0,255.0,255.0
277,13.850000000000001,5.000000000000012,0.0,-11.999999913721357,0.0,0.0,7.243614419394362e-07,0.0,0.0,-2.038824860051136e-05,0.0,70.0,255.0,255.0,255.0
278,13.9,5.000000000000012,0.0,-11.999999904951139,0.0,0.0,-1.9459298172819217e-07,0.0,0.0,-1.4118729474432712e-05,0.0,70.0,255.0,255.0,255.0
279,13.950000000000001,5.000000000000012,0.0,-11.999999933180655,0.0,0.0,-6.87511505503835e-07,0.0,0.0,-5.341914466328035e-06,0.0,70.0,255.0,255.0,255.0
280,14.0,5.000000000000012,0.0,-11.99999997370229,0.0,0.0,-7.287844283609957e-07,0.0,0.0,1.933510596074939e-06,0.0,70.0,255.0,255.0,255.0
281,14.05,5.000000000000012,0.0,-12.000000006059098,0.0,0.0,-4.941604458963411e-07,0.0,0.0,5.34692361497946e-06,0.0,70.0,255.0,255.0,255.0
282,14.100000000000001,5.000000000000012,0.0,-12.000000023118334,0.0,0.0,-1.940920668630497e-07,0.0,0.0,5.463014751683204e-06,0.0,70.0,255.0,255.0,255.0
283,14.15,5.000000000000012,0.0,-12.000000025468305,0.0,0.0,5.214102927197928e-08,0.0,0.0,3.783102187071563e-06,0.0,70.0,255.0,255.0,255.0
284,14.200000000000001,5.000000000000012,0.0,-12.000000017904231,0.0,0.0,1.8421815184410661e-07,0.0,0.0,1.4313618734718148e-06,0.0,70.0,255.0,255.0,255.0
285,14.25,5.000000000000012,0.0,-12.00000000704649,0.0,0.0,1.9527721661916075e-07,0.0,0.0,-5.180828210882282e-07,0.0,70.0,255.0,255.0,255.0
286,14.3,5.000000000000012,0.0,-11.99999999837651,0.0,0.0,1.324098697352838e-07,0.0,0.0,-1.4327039110639816e-06,0.0,70.0,255.0,255.0,255.0
287,14.350000000000001,5.000000000000012,0.0,-11.999999993805503,0.0,0.0,5.200682551276259e-08,0.0,0.0,-1.4638100509500873e-06,0.0,70.0,255.0,255.0,255.0
288,14.4,5.000000000000012,0.0,-11.999999993175827,0.0,0.0,-1.397113535972494e-08,0.0,0.0,-1.0136792738535405e-06,0.0,70.0,255.0,255.0,255.0
289,14.450000000000001,5.000000000000012,0.0,-11.999999995202616,0.0,0.0,-4.936110187259146e-08,0.0,0.0,-3.8353213938080444e-07,0.0,70.0,255.0,255.0,255.0
290,14.5,5.000000000000012,0.0,-11.999999998111937,0.0,0.0,-5.2324349297805384e-08,0.0,0.0,1.3881962246387047e-07,0.0,70.0,255.0,255.0,255.0
291,14.55,5.000000000000012,0.0,-12.000000000435051,0.0,0.0,-3.5479139626204415e-08,0.0,0.0,3.8389167400509905e-07,0.0,70.0,255.0,255.0,255.0
292,14.600000000000001,5.000000000000012,0.0,-12.000000001659851,0.0,0.0,-1.3935181897295479e-08,0.0,0.0,3.9222687320261684e-07,0.0,70.0,255.0,255.0,255.0
293,14.65,5.000000000000012,0.0,-12.00000000182857,0.0,0.0,3.74354769405727e-09,0.0,0.0,2.7161455307123106e-07,0.0,70.0,255.0,255.0,255.0
294,14.700000000000001,5.000000000000012,0.0,-12.000000001285496,0.0,0.0,1.3226273409827627e-08,0.0,0.0,1.0276739459413875e-07,0.0,70.0,255.0,255.0,255.0
295,14.75,5.000000000000012,0.0,-12.000000000505942,0.0,0.0,1.4020287153471145e-08,0.0,0.0,-3.7196912217041245e-08,0.0,70.0,255.0,255.0,255.0
296,14.8,5.000000000000012,0.0,-11.999999999883467,0.0,0.0,9.506582188123502e-09,0.0,0.0,-1.028634954991503e-07,0.0,70.0,255.0,255.0,255.0
297,14.850000000000001,5.000000000000012,0.0,-11.999999999555284,0.0,0.0,3.7339376035561145e-09,0.0,0.0,-1.050967313176443e-07,0.0,70.0,255.0,255.0,255.0
298,14.9,5.000000000000012,0.0,-11.999999999510074,0.0,0.0,-1.0030909436409274e-09,0.0,0.0,-7.277947133843554e-08,0.0,70.0,255.0,255.0,255.0
299,14.950000000000001,5.000000000000012,0.0,-11.999999999655593,0.0,0.0,-3.5440095302874397e-09,0.0,0.0,-2.7536195545962983e-08,0.0,70.0,255.0,255.0,255.0
300,15.0,5.000000000000012,0.0,-11.999999999864475,0.0,0.0,-3.756710498237226e-09,0.0,0.0,9.967315861558745e-09,0.0,70.0,255.0,255.0,255.0
301,15.05,5.000000000000012,0.0,-12.000000000031264,0.0,0.0,-2.547277944131565e-09,0.0,0.0,2.7561952720134286e-08,0.0,70.0,255.0,255.0,255.0
302,15.100000000000001,5.000000000000012,0.0,-12.000000000119202,0.0,0.0,-1.000515226223797e-09,0.0,0.0,2.816058497501217e-08,0.0,70.0,255.0,255.0,255.0
303,15.15,5.000000000000012,0.0,-12.000000000131315,0.0,0.0,2.687805533696519e-10,0.0,0.0,1.950137828998777e-08,0.0,70.0,255.0,255.0,255.0
304,15.200000000000001,5.000000000000012,0.0,-12.000000000092324,0.0,0.0,9.496226027749799e-10,0.0,0.0,7.37845340381682e-09,0.0,70.0,255.0,255.0,255.0
305,15.25,5.000000000000012,0.0,-12.000000000036353,0.0,0.0,1.006625893751334e-09,0.0,0.0,-2.6709301437222166e-09,0.0,70.0,255.0,255.0,255.0
306,15.3,5.000000000000012,0.0,-11.999999999991662,0.0,0.0,6.825295884027582e-10,0.0,0.0,-7.385558831174421e-09,0.0,70.0,255.0,255.0,255.0
307,15.350000000000001,5.000000000000012,0.0,-11.9999999999681,0.0,0.0,2.680700106338918e-10,0.0,0.0,-7.545608582404384e-09,0.0,70.0,255.0,255.0,255.0
308,15.4,5.000000000000012,0.0,-11.999999999964855,0.0,0.0,-7.203126983768016e-11,0.0,0.0,-5.224798371727957e-09,0.0,70.0,255.0,255.0,255.0
309,15.450000000000001,5.000000000000012,0.0,-11.999999999975303,0.0,0.0,-2.5440982653890387e-10,0.0,0.0,-1.9765522552006587e-09,0.0,70.0,255.0,255.0,255.0
310,15.5,5.000000000000012,0.0,-11.999999999990296,0.0,0.0,-2.69686495357746e-10,0.0,0.0,7.149836278586008e-10,0.0,70.0,255.0,255.0,255.0
311,15.55,5.000000000000012,0.0,-12.000000000002272,0.0,0.0,-1.829114637530438e-10,0.0,0.0,1.978328612040059e-09,0.0,70.0,255.0,255.0,255.0
312,15.600000000000001,5.000000000000012,0.0,-12.000000000008587,0.0,0.0,-7.185363415374013e-11,0.0,0.0,2.022026990289305e-09,0.0,70.0,255.0,255.0,255.0
313,15.65,5.000000000000012,0.0,-12.000000000009457,0.0,0.0,1.929123527588672e-11,0.0,0.0,1.4004797321831575e-09,0.0,70.0,255.0,255.0,255.0
314,15.700000000000001,5.000000000000012,0.0,-12.000000000006658,0.0,0.0,6.819433906457562e-11,0.0,0.0,5.298872451930947e-10,0.0,70.0,255.0,255.0,255.0
315,15.75,5.000000000000012,0.0,-12.000000000002638,0.0,0.0,7.227995979519619e-11,0.0,0.0,-1.922018100231071e-10,0.0,70.0,255.0,255.0,255.0
316,15.8,5.000000000000012,0.0,-11.99999999999943,0.0,0.0,4.8974158062264905e-11,0.0,0.0,-5.304201522449148e-10,0.0,70.0,255.0,255.0,255.0
317,15.850000000000001,5.000000000000012,0.0,-11.99999999999774,0.0,0.0,1.9237944570704713e-11,0.0,0.0,-5.412559289652563e-10,0.0,70.0,255.0,255.0,255.0
318,15.9,5.000000000000012,0.0,-11.999999999997506,0.0,0.0,-5.151434834260726e-12,0.0,0.0,-3.7498892879739287e-10,0.0,70.0,255.0,255.0,255.0
319,15.950000000000001,5.000000000000012,0.0,-11.999999999998256,0.0,0.0,-1.8260948309034575e-11,0.0,0.0,-1.4210854715202004e-10,0.0,70.0,255.0,255.0,255.0
320,16.0,5.000000000000012,0.0,-11.999999999999332,0.0,0.0,-1.936228954946273e-11,0.0,0.0,5.1159076974727213e-11,0.0,70.0,255.0,255.0,255.0
321,16.05,5.000000000000012,0.0,-12.000000000000192,0.0,0.0,-1.3145040611561853e-11,0.0,0.0,1.4193091146808e-10,0.0,70.0,255.0,255.0,255.0
322,16.1,5.000000000000012,0.0,-12.000000000000647,0.0,0.0,-5.169198402654729e-12,0.0,0.0,1.4548362514688051e-10,0.0,70.0,255.0,255.0,255.0
323,16.150000000000002,5.000000000000012,0.0,-12.000000000000709,0.0,0.0,1.4033219031261979e-12,0.0,0.0,1.007194327939942e-10,0.0,70.0,255.0,255.0,255.0
324,16.2,5.000000000000012,0.0,-12.000000000000506,0.0,0.0,4.902744876744691e-12,0.0,0.0,3.801403636316536e-11,0.0,70.0,255.0,255.0,255.0
325,16.25,5.000000000000012,0.0,-12.000000000000218,0.0,0.0,5.204725539442734e-12,0.0,0.0,-1.4033219031261979e-11,0.0,70.0,255.0,255.0,255.0
326,16.3,5.000000000000012,0.0,-11.999999999999986,0.0,0.0,3.4994229736184934e-12,0.0,0.0,-3.8546943414985435e-11,0.0,70.0,255.0,255.0,255.0
327,16.35,5.000000000000012,0.0,-11.999999999999869,0.0,0.0,1.3500311979441904e-12,0.0,0.0,-3.8546943414985435e-11,0.0,70.0,255.0,255.0,255.0
328,16.400000000000002,5.000000000000012,0.0,-11.99999999999985,0.0,0.0,-3.552713678800501e-13,0.0,0.0,-2.6645352591003757e-11,0.0,70.0,255.0,255.0,255.0
329,16.45,5.000000000000012,0.0,-11.999999999999904,0.0,0.0,-1.3145040611561853e-12,0.0,0.0,-1.0302869668521453e-11,0.0,70.0,255.0,255.0,255.0
330,16.5,5.000000000000012,0.0,-11.999999999999982,0.0,0.0,-1.3855583347321954e-12,0.0,0.0,3.907985046680551e-12,0.0,70.0,255.0,255.0,255.0
331,16.55,5.000000000000012,0.0,-12.000000000000043,0.0,0.0,-9.237055564881302e-13,0.0,0.0,1.0125233984581428e-11,0.0,70.0,255.0,255.0,255.0
332,16.6,5.000000000000012,0.0,-12.000000000000075,0.0,0.0,-3.730349362740526e-13,0.0,0.0,1.0125233984581428e-11,0.0,70.0,255.0,255.0,255.0
333,16.650000000000002,5.000000000000012,0.0,-12.00000000000008,0.0,0.0,8.881784197001252e-14,0.0,0.0,7.283063041541027e-12,0.0,70.0,255.0,255.0,255.0
334,16.7,5.000000000000012,0.0,-12.000000000000066,0.0,0.0,3.552713678800501e-13,0.0,0.0,3.0198066269804258e-12,0.0,70.0,255.0,255.0,255.0
335,16.75,5.000000000000012,0.0,-12.000000000000044,0.0,0.0,3.907985046680551e-13,0.0,0.0,-1.2434497875801753e-12,0.0,70.0,255.0,255.0,255.0
336,16.8,5.000000000000012,0.0,-12.000000000000027,0.0,0.0,2.3092638912203256e-13,0.0,0.0,-3.0198066269804258e-12,0.0,70.0,255.0,255.0,255.0
337,16.85,5.000000000000012,0.0,-12.000000000000021,0.0,0.0,8.881784197001252e-14,0.0,0.0,-2.3092638912203256e-12,0.0,70.0,255.0,255.0,255.0
338,16.900000000000002,5.000000000000012,0.0,-12.000000000000018,0.0,0.0,0.0,0.0,0.0,-1.7763568394002505e-12,0.0,70.0,255.0,255.0,255.0
339,16.95,5.000000000000012,0.0,-12.000000000000021,0.0,0.0,-8.881784197001252e-14,0.0,0.0,-1.0658141036401503e-12,0.0,70.0,255.0,255.0,255.0
340,17.0,5.000000000000012,0.0,-12.000000000000027,0.0,0.0,-1.0658141036401503e-13,0.0,0.0,1.7763568394002505e-13,0.0,70.0,255.0,255.0,255.0
341,17.05,5.000000000000012,0.0,-12.000000000000032,0.0,0.0,-7.105427357601002e-14,0.0,0.0,8.881784197001252e-13,0.0,70.0,255.0,255.0,255.0
342,17.1,5.000000000000012,0.0,-12.000000000000034,0.0,0.0,-1.7763568394002505e-14,0.0,0.0,7.105427357601002e-13,0.0,70.0,255.0,255.0,255.0
343,17.150000000000002,5.000000000000012,0.0,-12.000000000000034,0.0,0.0,0.0,0.0,0.0,5.329070518200751e-13,0.0,70.0,255.0,255.0,255.0
344,17.2,5.000000000000012,0.0,-12.000000000000034,0.0,0.0,3.552713678800501e-14,0.0,0.0,3.552713678800501e-13,0.0,70.0,255.0,255.0,255.0
345,17.25,5.000000000000012,0.0,-12.00000000000003,0.0,0.0,3.552713678800501e-14,0.0,0.0,-3.552713678800501e-13,0.0,70.0,255.0,255.0,255.0
346,17.3,5.000000000000012,0.0,-12.00000000000003,0.0,0.0,0.0,0.0,0.0,-1.7763568394002505e-13,0.0,70.0,255.0,255.0,255.0
347,17.35,5.000000000000012,0.0,-12.00000000000003,0.0,0.0,1.7763568394002505e-14,0.0,0.0,0.0,0.0,70.0,255.0,255.0,255.0
348,17.400000000000002,5.000000000000012,0.0,-12.000000000000028,0.0,0.0,0.0,0.0,0.0,-3.552713678800501e-13,0.0,70.0,255.0,255.0,255.0
349,17.45,5.000000000000012,0.0,-12.00000000000003,0.0,0.0,-1.7763568394002505e-14,0.0,0.0,0.0,0.0,70.0,255.0,255.0,255.0
350,17.5,5.000000000000012,0.0,-12.00000000000003,0.0,0.0,0.0,0.0,0.0,1.7763568394002505e-13,0.0,70.0,255.0,255.0,255.0
351,17.55,5.000000000000012,0.0,-12.00000000000003,0.0,0.0,0.0,0.0,0.0,-1.7763568394002505e-13,0.0,70.0,255.0,255.0,255.0
352,17.6,5.000000000000012,0.0,-12.00000000000003,0.0,0.0,-1.7763568394002505e-14,0.0,0.0,-1.7763568394002505e-13,0.0,70.0,255.0,255.0,255.0
353,17.650000000000002,5.000000000000012,0.0,-12.000000000000032,0.0,0.0,-1.7763568394002505e-14,0.0,0.0,3.552713678800501e-13,0.0,70.0,255.0,255.0,255.0
354,17.7,5.000000000000012,0.0,-12.000000000000032,0.0,0.0,1.7763568394002505e-14,0.0,0.0,3.552713678800501e-13,0.0,70.0,255.0,255.0,255.0
355,17.75,5.000000000000012,0.0,-12.00000000000003,0.0,0.0,1.7763568394002505e-14,0.0,0.0,-1.7763568394002505e-13,0.0,70.0,255.0,255.0,255.0
356,17.8,5.000000000000012,0.0,-12.00000000000003,0.0,0.0,0.0,0.0,0.0,-1.7763568394002505e-13,0.0,70.0,255.0,255.0,255.0
357,17.85,5.000000000000012,0.0,-12.00000000000003,0.0,0.0,0.0,0.0,0.0,0.0,0.0,70.0,255.0,255.0,255.0
358,17.900000000000002,5.000000000000012,0.0,-12.00000000000003,0.0,0.0,0.0,0.0,0.0,0.0,0.0,70.0,255.0,255.0,255.0
359,17.95,5.000000000000012,0.0,-12.00000000000003,0.0,0.0,0.0,0.0,0.0,0.0,0.0,70.0,255.0,255.0,255.0
360,18.0,5.000000000000012,0.0,-12.00000000000003,0.0,0.0,0.0,0.0,0.0,0.0,0.0,70.0,255.0,255.0,255.0
361,18.05,5.000000000000012,0.0,-12.00000000000003,0.0,0.0,0.0,0.0,0.0,0.0,0.0,70.0,255.0,255.0,255.0
362,18.1,5.000000000000012,0.0,-12.00000000000003,0.0,0.0,0.0,0.0,0.0,0.0,0.0,70.0,255.0,255.0,255.0
363,18.150000000000002,5.000000000000012,0.0,-12.00000000000003,0.0,0.0,0.0,0.0,0.0,0.0,0.0,70.0,255.0,255.0,255.0
364,18.2,5.000000000000012,0.0,-12.00000000000003,0.0,0.0,0.0,0.0,0.0,0.0,0.0,70.0,255.0,255.0,255.0
365,18.25,5.000000000000012,0.0,-12.00000000000003,0.0,0.0,0.0,0.0,0.0,0.0,0.0,70.0,255.0,255.0,255.0
366,18.3,5.000000000000012,0.0,-12.00000000000003,0.0,0.0,0.0,0.0,0.0,0.0,0.0,70.0,255.0,255.0,255.0
367,18.35,5.000000000000012,0.0,-12.00000000000003,0.0,0.0,0.0,0.0,0.0,0.0,0.0,70.0,255.0,255.0,255.0
368,18.400000000000002,5.000000000000012,0.0,-12.00000000000003,0.0,0.0,0.0,0.0,0.0,0.0,0.0,70.0,255.0,255.0,255.0
369,18.45,5.000000000000012,0.0,-12.00000000000003,0.0,0.0,0.0,0.0,0.0,0.0,0.0,70.0,255.0,255.0,255.0
370,18.5,5.000000000000012,0.0,-12.00000000000003,0.0,0.0,0.0,0.0,0.0,0.0,0.0,70.0,255.0,255.0,255.0
371,18.55,5.000000000000012,0.0,-12.00000000000003,0.0,0.0,0.0,0.0,0.0,0.0,0.0,70.0,255.0,255.0,255.0
372,18.6,5.000000000000012,0.0,-12.00000000000003,0.0,0.0,0.0,0.0,0.0,0.0,0.0,70.0,255.0,255.0,255.0
373,18.650000000000002,5.000000000000012,0.0,-12.00000000000003,0.0,0.0,0.0,0.0,0.0,0.0,0.0,70.0,255.0,255.0,255.0
374,18.7,5.000000000000012,0.0,-12.00000000000003,0.0,0.0,0.0,0.0,0.0,0.0,0.0,70.0,255.0,255.0,255.0
375,18.75,5.000000000000012,0.0,-12.00000000000003,0.0,0.0,0.0,0.0,0.0,0.0,0.0,70.0,255.0,255.0,255.0
376,18.8,5.000000000000012,0.0,-12.00000000000003,0.0,0.0,0.0,0.0,0.0,0.0,0.0,70.0,255.0,255.0,255.0
377,18.85,5.000000000000012,0.0,-12.00000000000003,0.0,0.0,0.0,0.0,0.0,0.0,0.0,70.0,255.0,255.0,255.0
378,18.900000000000002,5.000000000000012,0.0,-12.00000000000003,0.0,0.0,0.0,0.0,0.0,0.0,0.0,70.0,255.0,255.0,255.0
379,18.95,5.000000000000012,0.0,-12.00000000000003,0.0,0.0,0.0,0.0,0.0,0.0,0.0,70.0,255.0,255.0,255.0
380,19.0,5.000000000000012,0.0,-12.00000000000003,0.0,0.0,0.0,0.0,0.0,0.0,0.0,70.0,255.0,255.0,255.0
381,19.05,5.000000000000012,0.0,-12.00000000000003,0.0,0.0,0.0,0.0,0.0,0.0,0.0,70.0,255.0,255.0,255.0
382,19.1,5.000000000000012,0.0,-12.00000000000003,0.0,0.0,0.0,0.0,0.0,0.0,0.0,70.0,255.0,255.0,255.0
383,19.150000000000002,5.000000000000012,0.0,-12.00000000000003,0.0,0.0,0.0,0.0,0.0,0.0,0.0,70.0,255.0,255.0,255.0
384,19.200000000000003,5.000000000000012,0.0,-12.00000000000003,0.0,0.0,0.0,0.0,0.0,0.0,0.0,70.0,255.0,255.0,255.0
385,19.25,5.000000000000012,0.0,-12.00000000000003,0.0,0.0,0.0,0.0,0.0,0.0,0.0,70.0,255.0,255.0,255.0
386,19.3,5.000000000000012,0.0,-12.00000000000003,0.0,0.0,0.0,0.0,0.0,0.0,0.0,70.0,255.0,255.0,255.0
387,19.35,5.000000000000012,0.0,-12.00000000000003,0.0,0.0,0.0,0.0,0.0,0.0,0.0,70.0,255.0,255.0,255.0
388,19.400000000000002,5.000000000000012,0.0,-12.00000000000003,0.0,0.0,0.0,0.0,0.0,0.0,0.0,70.0,255.0,255.0,255.0
389,19.450000000000003,5.000000000000012,0.0,-12.00000000000003,0.0,0.0,0.0,0.0,0.0,0.0,0.0,70.0,255.0,255.0,255.0
390,19.5,5.000000000000012,0.0,-12.00000000000003,0.0,0.0,0.0,0.0,0.0,0.0,0.0,70.0,255.0,255.0,255.0
391,19.55,5.000000000000012,0.0,-12.00000000000003,0.0,0.0,0.0,0.0,0.0,0.0,0.0,70.0,255.0,255.0,255.0
392,19.6,5.000000000000012,0.0,-12.00000000000003,0.0,0.0,0.0,0.0,0.0,0.0,0.0,70.0,255.0,255.0,255.0
393,19.650000000000002,5.000000000000012,0.0,-12.00000000000003,0.0,0.0,0.0,0.0,0.0,0.0,0.0,70.0,255.0,255.0,255.0
394,19.700000000000003,5.000000000000012,0.0,-12.00000000000003,0.0,0.0,0.0,0.0,0.0,0.0,0.0,70.0,255.0,255.0,255.0
395,19.75,5.000000000000012,0.0,-12.00000000000003,0.0,0.0,0.0,0.0,0.0,0.0,0.0,70.0,255.0,255.0,255.0
396,19.8,5.000000000000012,0.0,-12.00000000000003,0.0,0.0,0.0,0.0,0.0,0.0,0.0,70.0,255.0,255.0,255.0
397,19.85,5.000000000000012,0.0,-12.00000000000003,0.0,0.0,0.0,0.0,0.0,0.0,0.0,70.0,255.0,255.0,255.0
398,19.900000000000002,5.000000000000012,0.0,-12.00000000000003,0.0,0.0,0.0,0.0,0.0,0.0,0.0,70.0,255.0,255.0,255.0
399,19.950000000000003,5.000000000000012,0.0,-12.00000000000003,0.0,0.0,0.0,0.0,0.0,0.0,0.0,70.0,255.0,255.0,255.0
400,20.0,5.000000000000012,0.0,-12.00000000000003,0.0,0.0,0.0,0.0,0.0,0.0,0.0,70.0,255.0,255.0,255.0
401,20.05,5.000000000000012,0.0,-12.00000000000003,0.0,0.0,0.0,0.0,0.0,0.0,0.0,70.0,255.0,255.0,255.0
402,20.1,5.000000000000012,0.0,-12.00000000000003,0.0,0.0,0.0,0.0,0.0,0.0,0.0,70.0,255.0,255.0,255.0
403,20.150000000000002,5.000000000000012,0.0,-12.00000000000003,0.0,0.0,0.0,0.0,0.0,0.0,0.0,70.0,255.0,255.0,255.0
404,20.200000000000003,5.000000000000012,0.0,-12.00000000000003,0.0,0.0,0.0,0.0,0.0,0.0,0.0,70.0,255.0,255.0,255.0
405,20.25,5.000000000000012,0.0,-12.00000000000003,0.0,0.0,0.0,0.0,0.0,0.0,0.0,70.0,255.0,255.0,255.0
406,20.3,5.000000000000012,0.0,-12.00000000000003,0.0,0.0,0.0,0.0,0.0,0.0,0.0,70.0,255.0,255.0,255.0
407,20.35,5.000000000000012,0.0,-12.00000000000003,0.0,0.0,0.0,0.0,0.0,0.0,0.0,70.0,255.0,255.0,255.0
408,20.400000000000002,5.000000000000012,0.0,-12.00000000000003,0.0,0.0,0.0,0.0,0.0,0.0,0.0,70.0,255.0,255.0,255.0
409,20.450000000000003,5.000000000000012,0.0,-12.00000000000003,0.0,0.0,0.0,0.0,0.0,0.0,0.0,70.0,255.0,255.0,255.0
410,20.5,5.000000000000012,0.0,-12.00000000000003,0.0,0.0,0.0,0.0,0.0,0.0,0.0,70.0,255.0,255.0,255.0
411,20.55,5.000000000000012,0.0,-12.00000000000003,0.0,0.0,0.0,0.0,0.0,0.0,0.0,70.0,255.0,255.0,255.0
412,20.6,5.000000000000012,0.0,-12.00000000000003,0.0,0.0,0.0,0.0,0.0,0.0,0.0,70.0,255.0,255.0,255.0
413,20.650000000000002,5.000000000000012,0.0,-12.00000000000003,0.0,0.0,0.0,0.0,0.0,0.0,0.0,70.0,255.0,255.0,255.0
414,20.700000000000003,5.000000000000012,0.0,-12.00000000000003,0.0,0.0,0.0,0.0,0.0,0.0,0.0,70.0,255.0,255.0,255.0
415,20.75,5.000000000000012,0.0,-12.00000000000003,0.0,0.0,0.0,0.0,0.0,0.0,0.0,70.0,255.0,255.0,255.0
416,20.8,5.000000000000012,0.0,-12.00000000000003,0.0,0.0,0.0,0.0,0.0,0.0,0.0,70.0,255.0,255.0,255.0
417,20.85,5.000000000000012,0.0,-12.00000000000003,0.0,0.0,0.0,0.0,0.0,0.0,0.0,70.0,255.0,255.0,255.0
418,20.900000000000002,5.000000000000012,0.0,-12.00000000000003,0.0,0.0,0.0,0.0,0.0,0.0,0.0,70.0,255.0,255.0,255.0
419,20.950000000000003,5.000000000000012,0.0,-12.00000000000003,0.0,0.0,0.0,0.0,0.0,0.0,0.0,70.0,255.0,255.0,255.0
420,21.0,5.000000000000012,0.0,-12.00000000000003,0.0,0.0,0.0,0.0,0.0,0.0,0.0,70.0,255.0,255.0,255.0
421,21.05,5.000000000000012,0.0,-12.00000000000003,0.0,0.0,0.0,0.0,0.0,0.0,0.0,70.0,255.0,255.0,255.0
422,21.1,5.000000000000012,0.0,-12.00000000000003,0.0,0.0,0.0,0.0,0.0,0.0,0.0,70.0,255.0,255.0,255.0
423,21.150000000000002,5.000000000000012,0.0,-12.00000000000003,0.0,0.0,0.0,0.0,0.0,0.0,0.0,70.0,255.0,255.0,255.0
424,21.200000000000003,5.000000000000012,0.0,-12.00000000000003,0.0,0.0,0.0,0.0,0.0,0.0,0.0,70.0,255.0,255.0,255.0
425,21.25,5.000000000000012,0.0,-12.00000000000003,0.0,0.0,0.0,0.0,0.0,0.0,0.0,70.0,255.0,255.0,255.0
426,21.3,5.000000000000012,0.0,-12.00000000000003,0.0,0.0,0.0,0.0,0.0,0.0,0.0,70.0,255.0,255.0,255.0
427,21.35,5.000000000000012,0.0,-12.00000000000003,0.0,0.0,0.0,0.0,0.0,0.0,0.0,70.0,255.0,255.0,255.0
428,21.400000000000002,5.000000000000012,0.0,-12.00000000000003,0.0,0.0,0.0,0.0,0.0,0.0,0.0,70.0,255.0,255.0,255.0
429,21.450000000000003,5.000000000000012,0.0,-12.00000000000003,0.0,0.0,0.0,0.0,0.0,0.0,0.0,70.0,255.0,255.0,255.0
430,21.5,5.000000000000012,0.0,-12.00000000000003,0.0,0.0,0.0,0.0,0.0,0.0,0.0,70.0,255.0,255.0,255.0
431,21.55,5.000000000000012,0.0,-12.00000000000003,0.0,0.0,0.0,0.0,0.0,0.0,0.0,70.0,255.0,255.0,255.0
432,21.6,5.000000000000012,0.0,-12.00000000000003,0.0,0.0,0.0,0.0,0.0,0.0,0.0,70.0,255.0,255.0,255.0
433,21.650000000000002,5.000000000000012,0.0,-12.00000000000003,0.0,0.0,0.0,0.0,0.0,0.0,0.0,70.0,255.0,255.0,255.0
434,21.700000000000003,5.000000000000012,0.0,-12.00000000000003,0.0,0.0,0.0,0.0,0.0,0.0,0.0,70.0,255.0,255.0,255.0
435,21.75,5.000000000000012,0.0,-12.00000000000003,0.0,0.0,0.0,0.0,0.0,0.0,0.0,70.0,255.0,255.0,255.0
436,21.8,5.000000000000012,0.0,-12.00000000000003,0.0,0.0,0.0,0.0,0.0,0.0,0.0,70.0,255.0,255.0,255.0
437,21.85,5.000000000000012,0.0,-12.00000000000003,0.0,0.0,0.0,0.0,0.0,0.0,0.0,70.0,255.0,255.0,255.0
438,21.900000000000002,5.000000000000012,0.0,-12.00000000000003,0.0,0.0,0.0,0.0,0.0,0.0,0.0,70.0,255.0,255.0,255.0
439,21.950000000000003,5.000000000000012,0.0,-12.00000000000003,0.0,0.0,0.0,0.0,0.0,0.0,0.0,70.0,255.0,255.0,255.0
440,22.0,5.000000000000012,0.0,-12.00000000000003,0.0,0.0,0.0,0.0,0.0,0.0,0.0,70.0,255.0,255.0,255.0
441,22.05,5.000000000000012,0.0,-12.00000000000003,0.0,0.0,0.0,0.0,0.0,0.0,0.0,70.0,255.0,255.0,255.0
442,22.1,5.000000000000012,0.0,-12.00000000000003,0.0,0.0,0.0,0.0,0.0,0.0,0.0,70.0,255.0,255.0,255.0
443,22.150000000000002,5.000000000000012,0.0,-12.00000000000003,0.0,0.0,0.0,0.0,0.0,0.0,0.0,70.0,255.0,255.0,255.0
444,22.200000000000003,5.000000000000012,0.0,-12.00000000000003,0.0,0.0,0.0,0.0,0.0,0.0,0.0,70.0,255.0,255.0,255.0
445,22.25,5.000000000000012,0.0,-12.00000000000003,0.0,0.0,0.0,0.0,0.0,0.0,0.0,70.0,255.0,255.0,255.0
446,22.3,5.000000000000012,0.0,-12.00000000000003,0.0,0.0,0.0,0.0,0.0,0.0,0.0,70.0,255.0,255.0,255.0
447,22.35,5.000000000000012,0.0,-12.00000000000003,0.0,0.0,0.0,0.0,0.0,0.0,0.0,70.0,255.0,255.0,255.0
448,22.400000000000002,5.000000000000012,0.0,-12.00000000000003,0.0,0.0,0.0,0.0,0.0,0.0,0.0,70.0,255.0,255.0,255.0
449,22.450000000000003,5.000000000000012,0.0,-12.00000000000003,0.0,0.0,0.0,0.0,0.0,0.0,0.0,70.0,255.0,255.0,255.0
450,22.5,5.000000000000012,0.0,-12.00000000000003,0.0,0.0,0.0,0.0,0.0,0.0,0.0,70.0,255.0,255.0,255.0
451,22.55,5.000000000000012,0.0,-12.00000000000003,0.0,0.0,0.0,0.0,0.0,0.0,0.0,70.0,255.0,255.0,255.0
452,22.6,5.000000000000012,0.0,-12.00000000000003,0.0,0.0,0.0,0.0,0.0,0.0,0.0,70.0,255.0,255.0,255.0
453,22.650000000000002,5.000000000000012,0.0,-12.00000000000003,0.0,0.0,0.0,0.0,0.0,0.0,0.0,70.0,255.0,255.0,255.0
454,22.700000000000003,5.000000000000012,0.0,-12.00000000000003,0.0,0.0,0.0,0.0,0.0,0.0,0.0,70.0,255.0,255.0,255.0
455,22.75,5.000000000000012,0.0,-12.00000000000003,0.0,0.0,0.0,0.0,0.0,0.0,0.0,70.0,255.0,255.0,255.0
456,22.8,5.000000000000012,0.0,-12.00000000000003,0.0,0.0,0.0,0.0,0.0,0.0,0.0,70.0,255.0,255.0,255.0
457,22.85,5.000000000000012,0.0,-12.00000000000003,0.0,0.0,0.0,0.0,0.0,0.0,0.0,70.0,255.0,255.0,255.0
458,22.900000000000002,5.000000000000012,0.0,-12.00000000000003,0.0,0.0,0.0,0.0,0.0,0.0,0.0,70.0,255.0,255.0,255.0
459,22.950000000000003,5.000000000000012,0.0,-12.00000000000003,0.0,0.0,0.0,0.0,0.0,0.0,0.0,70.0,255.0,255.0,255.0
460,23.0,5.000000000000012,0.0,-12.00000000000003,0.0,0.0,0.0,0.0,0.0,0.0,0.0,70.0,255.0,255.0,255.0
461,23.05,5.000000000000012,0.0,-12.00000000000003,0.0,0.0,0.0,0.0,0.0,0.0,0.0,70.0,255.0,255.0,255.0
462,23.1,5.000000000000012,0.0,-12.00000000000003,0.0,0.0,0.0,0.0,0.0,0.0,0.0,70.0,255.0,255.0,255.0
463,23.150000000000002,5.000000000000012,0.0,-12.00000000000003,0.0,0.0,0.0,1.7763568394002505e-13,0.0,0.0,0.0,70.0,255.0,255.0,255.0
464,23.200000000000003,5.000000000000012,0.0,-12.00000000000003,1.7763568394002505e-14,0.0,0.0,8.881784197001252e-14,0.0,0.0,0.0,70.0,255.0,255.0,255.0
465,23.25,5.000000000000014,0.0,-12.00000000000003,8.881784197001252e-15,0.0,0.0,-1.7763568394002505e-13,0.0,0.0,0.0,70.0,255.0,255.0,255.0
466,23.3,5.000000000000013,0.0,-12.00000000000003,0.0,0.0,0.0,0.0,0.0,0.0,0.0,70.0,255.0,255.0,255.0
467,23.35,5.000000000000014,0.0,-12.00000000000003,8.881784197001252e-15,0.0,0.0,-8.881784197001252e-14,0.0,0.0,0.0,70.0,255.0,255.0,255.0
468,23.400000000000002,5.000000000000014,0.0,-12.00000000000003,-8.881784197001252e-15,0.0,0.0,-2.6645352591003757e-13,0.0,0.0,0.0,70.0,255.0,255.0,255.0
469,23.450000000000003,5.000000000000013,0.0,-12.00000000000003,-1.7763568394002505e-14,0.0,0.0,-2.6645352591003757e-13,0.0,0.0,0.0,70.0,255.0,255.0,255.0
470,23.5,5.000000000000012,0.0,-12.00000000000003,-3.552713678800501e-14,0.0,0.0,-1.7763568394002505e-13,0.0,0.0,0.0,70.0,255.0,255.0,255.0
471,23.55,5.00000000000001,0.0,-12.00000000000003,-3.552713678800501e-14,0.0,0.0,2.6645352591003757e-13,0.0,0.0,0.0,70.0,255.0,255.0,255.0
472,23.6,5.000000000000009,0.0,-12.00000000000003,-8.881784197001252e-15,0.0,0.0,6.217248937900877e-13,0.0,0.0,0.0,70.0,255.0,255.0,255.0
473,23.650000000000002,5.000000000000009,0.0,-12.00000000000003,2.6645352591003757e-14,0.0,0.0,8.881784197001252e-13,0.0,0.0,0.0,70.0,255.0,255.0,255.0
474,23.700000000000003,5.0000000000000115,0.0,-12.00000000000003,7.993605777301127e-14,0.0,0.0,8.881784197001252e-13,0.0,0.0,0.0,70.0,255.0,255.0,255.0
475,23.75,5.000000000000017,0.0,-12.00000000000003,1.1546319456101628e-13,0.0,0.0,3.552713678800501e-13,0.0,0.0,0.0,70.0,255.0,255.0,255.0
476,23.8,5.000000000000023,0.0,-12.00000000000003,1.1546319456101628e-13,0.0,0.0,-7.105427357601002e-13,0.0,0.0,0.0,70.0,255.0,255.0,255.0
477,23.85,5.000000000000028,0.0,-12.00000000000003,4.440892098500626e-14,0.0,0.0,-2.398081733190338e-12,0.0,0.0,0.0,70.0,255.0,255.0,255.0
478,23.900000000000002,5.0000000000000275,0.0,-12.00000000000003,-1.2434497875801753e-13,0.0,0.0,-3.4638958368304884e-12,0.0,0.0,0.0,70.0,255.0,255.0,255.0
479,23.950000000000003,5.000000000000016,0.0,-12.00000000000003,-3.019806626980426e-13,0.0,0.0,-3.1086244689504383e-12,0.0,0.0,0.0,70.0,255.0,255.0,255.0
480,24.0,4.999999999999997,0.0,-12.00000000000003,-4.3520742565306136e-13,0.0,0.0,-1.1546319456101628e-12,0.0,0.0,0.0,70.0,255.0,255.0,255.0
481,24.05,4.9999999999999725,0.0,-12.00000000000003,-4.1744385725905886e-13,0.0,0.0,3.2862601528904634e-12,0.0,0.0,0.0,70.0,255.0,255.0,255.0
482,24.1,4.999999999999956,0.0,-12.00000000000003,-1.0658141036401503e-13,0.0,0.0,8.526512829121202e-12,0.0,0.0,0.0,70.0,255.0,255.0,255.0
483,24.150000000000002,4.999999999999962,0.0,-12.00000000000003,4.3520742565306136e-13,0.0,0.0,1.2168044349891716e-11,0.0,0.0,0.0,70.0,255.0,255.0,255.0
484,24.200000000000003,4.999999999999999,0.0,-12.00000000000003,1.1102230246251565e-12,0.0,0.0,1.199040866595169e-11,0.0,0.0,0.0,70.0,255.0,255.0,255.0
485,24.25,5.000000000000073,0.0,-12.00000000000003,1.6342482922482304e-12,0.0,0.0,4.263256414560601e-12,0.0,0.0,0.0,70.0,255.0,255.0,255.0
486,24.3,5.0000000000001625,0.0,-12.00000000000003,1.5365486660812167e-12,0.0,0.0,-1.1812772982011666e-11,0.0,0.0,0.0,70.0,255.0,255.0,255.0
487,24.35,5.0000000000002265,0.0,-12.00000000000003,4.5297099404706387e-13,0.0,0.0,-3.161915174132446e-11,0.0,0.0,0.0,70.0,255.0,255.0,255.0
488,24.400000000000002,5.000000000000208,0.0,-12.00000000000003,-1.6253665080512292e-12,0.0,0.0,-4.600764214046649e-11,0.0,0.0,0.0,70.0,255.0,255.0,255.0
489,24.450000000000003,5.000000000000064,0.0,-12.00000000000003,-4.147793219999585e-12,0.0,0.0,-4.503064587879635e-11,0.0,0.0,0.0,70.0,255.0,255.0,255.0
490,24.5,4.999999999999793,0.0,-12.00000000000003,-6.128431095930864e-12,0.0,0.0,-1.6342482922482304e-11,0.0,0.0,0.0,70.0,255.0,255.0,255.0
491,24.55,4.999999999999451,0.0,-12.00000000000003,-5.782041512247815e-12,0.0,0.0,4.511946372076636e-11,0.0,0.0,0.0,70.0,255.0,255.0,255.0
492,24.6,4.999999999999215,0.0,-12.00000000000003,-1.616484723854228e-12,0.0,0.0,1.1857181902996672e-10,0.0,0.0,0.0,70.0,255.0,255.0,255.0
493,24.650000000000002,4.9999999999992895,0.0,-12.00000000000003,6.0751403907488566e-12,0.0,0.0,1.7106316363424412e-10,0.0,0.0,0.0,70.0,255.0,255.0,255.0
494,24.700000000000003,4.999999999999822,0.0,-12.00000000000003,1.5489831639570184e-11,0.0,0.0,1.6768808563938364e-10,0.0,0.0,0.0,70.0,255.0,255.0,255.0
495,24.75,5.000000000000838,0.0,-12.00000000000003,2.284394895468722e-11,0.0,0.0,6.048495038157853e-11,0.0,0.0,0.0,70.0,255.0,255.0,255.0
496,24.8,5.000000000002107,0.0,-12.00000000000003,2.1538326677728037e-11,0.0,0.0,-1.674216321134736e-10,0.0,0.0,0.0,70.0,255.0,255.0,255.0
497,24.85,5.000000000002992,0.0,-12.00000000000003,6.10178574333986e-12,0.0,0.0,-4.424016708526324e-10,0.0,0.0,0.0,70.0,255.0,255.0,255.0
498,24.900000000000002,5.000000000002717,0.0,-12.00000000000003,-2.27018404075352e-11,0.0,0.0,-6.391331908162101e-10,0.0,0.0,0.0,70.0,255.0,255.0,255.0
499,24.950000000000003,5.000000000000722,0.0,-12.00000000000003,-5.781153333828115e-11,0.0,0.0,-6.257216966787382e-10,0.0,0.0,0.0,70.0,255.0,255.0,255.0
500,25.0,4.999999999996936,0.0,-12.00000000000003,-8.527401007540902e-11,0.0,0.0,-2.262190434976219e-10,0.0,0.0,0.0,70.0,255.0,255.0,255.0
501,25.05,4.999999999992195,0.0,-12.00000000000003,-8.043343768804334e-11,0.0,0.0,6.252776074688882e-10,0.0,0.0,0.0,70.0,255.0,255.0,255.0
502,25.1,4.999999999988892,0.0,-12.00000000000003,-2.2746249328520207e-11,0.0,0.0,1.651834224958293e-09,0.0,0.0,0.0,70.0,255.0,255.0,255.0
503,25.150000000000002,4.99999999998992,0.0,-12.00000000000003,8.474998480778595e-11,0.0,0.0,2.3849366925787763e-09,0.0,0.0,0.0,70.0,255.0,255.0,255.0
504,25.200000000000003,4.999999999997367,0.0,-12.00000000000003,2.1574741992935742e-10,0.0,0.0,2.334488158339809e-09,0.0,0.0,0.0,70.0,255.0,255.0,255.0
505,25.25,5.000000000011495,0.0,-12.00000000000003,3.1819880064176687e-10,0.0,0.0,8.444800414508791e-10,0.0,0.0,0.0,70.0,255.0,255.0,255.0
506,25.3,5.000000000029187,0.0,-12.00000000000003,3.0019542407444533e-10,0.0,0.0,-2.332090076606619e-09,0.0,0.0,0.0,70.0,255.0,255.0,255.0
507,25.35,5.000000000041514,0.0,-12.00000000000003,8.498979298110498e-11,0.0,0.0,-6.164757593296599e-09,0.0,0.0,0.0,70.0,255.0,255.0,255.0
508,25.400000000000002,5.000000000037686,0.0,-12.00000000000003,-3.162803352552146e-10,0.0,0.0,-8.902567572022235e-09,0.0,0.0,0.0,70.0,255.0,255.0,255.0
509,25.450000000000003,5.000000000009886,0.0,-12.00000000000003,-8.052669642211185e-10,0.0,0.0,-8.713119115100199e-09,0.0,0.0,0.0,70.0,255.0,255.0,255.0
510,25.5,4.99999999995716,0.0,-12.00000000000003,-1.1875922467652344e-09,0.0,0.0,-3.1507241260442242e-09,0.0,0.0,0.0,70.0,255.0,255.0,255.0
511,25.55,4.999999999891127,0.0,-12.00000000000003,-1.120339376825541e-09,0.0,0.0,8.705036691480927e-09,0.0,0.0,0.0,70.0,255.0,255.0,255.0
512,25.6,4.999999999845126,0.0,-12.00000000000003,-3.170885776171417e-10,0.0,0.0,2.3007284966070074e-08,0.0,0.0,0.0,70.0,255.0,255.0,255.0
513,25.650000000000002,4.999999999859418,0.0,-12.00000000000003,1.1803891197814664e-09,0.0,0.0,3.3223379602986824e-08,0.0,0.0,0.0,70.0,255.0,255.0,255.0
514,25.700000000000003,4.999999999963165,0.0,-12.00000000000003,3.0052493826815407e-09,0.0,0.0,3.2517366577167195e-08,0.0,0.0,0.0,70.0,255.0,255.0,255.0
515,25.75,5.000000000159943,0.0,-12.00000000000003,4.432125777498186e-09,0.0,0.0,1.1758860551935868e-08,0.0,0.0,0.0,70.0,255.0,255.0,255.0
516,25.8,5.000000000406377,0.0,-12.00000000000003,4.1811354378751275e-09,0.0,0.0,-3.248707969305542e-08,0.0,0.0,0.0,70.0,255.0,255.0,255.0
517,25.85,5.000000000578057,0.0,-12.00000000000003,1.1834178081926439e-09,0.0,0.0,-8.586376054608991e-08,0.0,0.0,0.0,70.0,255.0,255.0,255.0
518,25.900000000000002,5.000000000524719,0.0,-12.00000000000003,-4.405240616733863e-09,0.0,0.0,-1.2399166138266082e-07,0.0,0.0,0.0,70.0,255.0,255.0,255.0
519,25.950000000000003,5.000000000137533,0.0,-12.00000000000003,-1.1215748330073438e-08,0.0,0.0,-1.2135679128277843e-07,0.0,0.0,0.0,70.0,255.0,255.0,255.0
520,26.0,4.999999999403144,0.0,-12.00000000000003,-1.6540919745011706e-08,0.0,0.0,-4.388418517464743e-08,0.0,0.0,0.0,70.0,255.0,255.0,255.0
521,26.05,4.999999998483441,0.0,-12.00000000000003,-1.560416684753818e-08,0.0,0.0,1.2124319326289879e-07,0.0,0.0,0.0,70.0,255.0,255.0,255.0
522,26.1,4.999999997842727,0.0,-12.00000000000003,-4.416600418721828e-09,0.0,0.0,3.204470466755538e-07,0.0,0.0,0.0,70.0,255.0,255.0,255.0
523,26.150000000000002,4.999999998041781,0.0,-12.00000000000003,1.6440537820017198e-08,0.0,0.0,4.6274388765255026e-07,0.0,0.0,0.0,70.0,255.0,255.0,255.0
524,26.200000000000003,4.999999999486781,0.0,-12.00000000000003,4.18577883465332e-08,0.0,0.0,4.529101538253144e-07,0.0,0.0,0.0,70.0,255.0,255.0,255.0
525,26.25,5.0000000022275595,0.0,-12.00000000000003,6.173155320254864e-08,0.0,0.0,1.63777436057444e-07,0.0,0.0,0.0,70.0,255.0,255.0,255.0
526,26.3,5.0000000056599365,0.0,-12.00000000000003,5.82355319522776e-08,0.0,0.0,-4.524857821763817e-07,0.0,0.0,0.0,70.0,255.0,255.0,255.0
527,26.35,5.000000008051113,0.0,-12.00000000000003,1.648297498491047e-08,0.0,0.0,-1.1959244261561253e-06,0.0,0.0,0.0,70.0,255.0,255.0,255.0
528,26.400000000000002,5.000000007308234,0.0,-12.00000000000003,-6.135691066333493e-08,0.0,0.0,-1.7269834451383304e-06,0.0,0.0,0.0,70.0,255.0,255.0,255.0
529,26.450000000000003,5.000000001915422,0.0,-12.00000000000003,-1.5621536952892257e-07,0.0,0.0,-1.690284179289847e-06,0.0,0.0,0.0,70.0,255.0,255.0,255.0
530,26.5,4.999999991686697,0.0,-12.00000000000003,-2.3038532859231964e-07,0.0,0.0,-6.112262695978643e-07,0.0,0.0,0.0,70.0,255.0,255.0,255.0
531,26.55,4.999999978876889,0.0,-12.00000000000003,-2.17337996488709e-07,0.0,0.0,1.6887005571675218e-06,0.0,0.0,0.0,70.0,255.0,255.0,255.0
532,26.6,4.999999969952897,0.0,-12.00000000000003,-6.151527287556746e-08,0.0,0.0,4.463251102038157e-06,0.0,0.0,0.0,70.0,255.0,255.0,255.0
533,26.650000000000002,4.9999999727253615,0.0,-12.00000000000003,2.2898711371510672e-07,0.0,0.0,6.445189182358035e-06,0.0,0.0,0.0,70.0,255.0,255.0,255.0
534,26.700000000000003,4.999999992851609,0.0,-12.00000000000003,5.830036453602361e-07,0.0,0.0,6.308226740969758e-06,0.0,0.0,0.0,70.0,255.0,255.0,255.0
535,26.75,5.000000031025726,0.0,-12.00000000000003,8.598097878120825e-07,0.0,0.0,2.281128619330275e-06,0.0,0.0,0.0,70.0,255.0,255.0,255.0
536,26.8,5.000000078832588,0.0,-12.00000000000003,8.111165072932636e-07,0.0,0.0,-6.302316890582915e-06,0.0,0.0,0.0,70.0,255.0,255.0,255.0
537,26.85,5.000000112137377,0.0,-12.00000000000003,2.2957809875379098e-07,0.0,0.0,-1.6657080958992765e-05,0.0,0.0,0.0,70.0,255.0,255.0,255.0
538,26.900000000000002,5.0000001017903974,0.0,-12.00000000000003,-8.545915886060129e-07,0.0,0.0,-2.4053773106658127e-05,0.0,0.0,0.0,70.0,255.0,255.0,255.0
539,26.950000000000003,5.000000026678218,0.0,-12.00000000000003,-2.1757992119120217e-06,0.0,0.0,-2.354262207404645e-05,0.0,0.0,0.0,70.0,255.0,255.0,255.0
540,27.0,4.999999884210476,0.0,-12.00000000000003,-3.208853796010658e-06,0.0,0.0,-8.513288118905393e-06,0.0,0.0,0.0,70.0,255.0,255.0,255.0
541,27.05,4.999999705792838,0.0,-12.00000000000003,-3.027128023802561e-06,0.0,0.0,2.352056700516414e-05,0.0,0.0,0.0,70.0,255.0,255.0,255.0
542,27.1,4.999999581497674,0.0,-12.00000000000003,-8.567970954942439e-07,0.0,0.0,6.216507255629722e-05,0.0,0.0,0.0,70.0,255.0,255.0,255.0
543,27.150000000000002,4.999999620113129,0.0,-12.00000000000003,3.1893792318271608e-06,0.0,0.0,8.976990297782095e-05,0.0,0.0,0.0,70.0,255.0,255.0,255.0
544,27.200000000000003,4.999999900435597,0.0,-12.00000000000003,8.120193202287851e-06,0.0,0.0,8.78622614663982e-05,0.0,0.0,0.0,70.0,255.0,255.0,255.0
545,27.25,5.000000432132449,0.0,-12.00000000000003,1.197560537846698e-05,0.0,0.0,3.1772023234566404e-05,0.0,0.0,0.0,70.0,255.0,255.0,255.0
546,27.3,5.000001097996135,0.0,-12.00000000000003,1.1297395525744491e-05,0.0,0.0,-8.777995068598443e-05,0.0,0.0,0.0,70.0,255.0,255.0,255.0
547,27.35,5.0000015618720015,0.0,-12.00000000000003,3.197610309868537e-06,0.0,0.0,-0.00023200320828919985,0.0,0.0,0.0,70.0,255.0,255.0,255.0
548,27.400000000000002,5.000001417757166,0.0,-12.00000000000003,-1.1902925303175493e-05,0.0,0.0,-0.0003350258393375327,0.0,0.0,0.0,70.0,255.0,255.0,255.0
549,27.450000000000003,5.000000371579471,0.0,-12.00000000000003,-3.0304973623884734e-05,0.0,0.0,-0.0003279064243244534,0.0,0.0,0.0,70.0,255.0,255.0,255.0
550,27.5,4.9999983872598035,0.0,-12.00000000000003,-4.469356773562083e-05,0.0,0.0,-0.00011857480428645317,0.0,0.0,0.0,70.0,255.0,255.0,255.0
551,27.55,4.999995902222698,0.0,-12.00000000000003,-4.216245405253005e-05,0.0,0.0,0.0003275992357387736,0.0,0.0,0.0,70.0,255.0,255.0,255.0
552,27.6,4.999994171014398,0.0,-12.00000000000003,-1.1933644161743473e-05,0.0,0.0,0.0008658477602452308,0.0,0.0,0.0,70.0,255.0,255.0,255.0
553,27.650000000000002,4.9999947088582815,0.0,-12.00000000000003,4.442232197199303e-05,0.0,0.0,0.0012503334551716705,0.0,0.0,0.0,70.0,255.0,255.0,255.0
554,27.700000000000003,4.9999986132465954,0.0,-12.00000000000003,0.00011309970135542358,0.0,0.0,0.0012237634359202332,0.0,0.0,0.0,70.0,255.0,255.0,255.0
555,27.75,5.000006018828417,0.0,-12.00000000000003,0.00016679866556401635,0.0,0.0,0.0004425271931118857,0.0,0.0,0.0,70.0,255.0,255.0,255.0
556,27.8,5.000015293113152,0.0,-12.00000000000003,0.00015735242066661215,0.0,0.0,-0.0012226169923579278,0.0,0.0,0.0,70.0,255.0,255.0,255.0
557,27.85,5.000021754070484,0.0,-12.00000000000003,4.453696632822357e-05,0.0,0.0,-0.0032313878326917234,0.0,0.0,0.0,70.0,255.0,255.0,255.0
558,27.900000000000002,5.000019746809785,0.0,-12.00000000000003,-0.0001657863626025602,0.0,0.0,-0.004666307981082696,0.0,0.0,0.0,70.0,255.0,255.0,255.0
559,27.950000000000003,5.000005175434223,0.0,-12.00000000000003,-0.000422093831780046,0.0,0.0,-0.0045671473192676615,0.0,0.0,0.0,70.0,255.0,255.0,255.0
560,28.0,4.999977537426607,0.0,-12.00000000000003,-0.0006225010945293263,0.0,0.0,-0.0016515339683387253,0.0,0.0,0.0,70.0,255.0,255.0,255.0
561,28.05,4.9999429253247705,0.0,-12.00000000000003,-0.0005872472286139185,0.0,0.0,0.004562868733959391,0.0,0.0,0.0,70.0,255.0,255.0,255.0
562,28.1,4.999918812703745,0.0,-12.00000000000003,-0.00016621422113338724,0.0,0.0,0.012059703570344027,0.0,0.0,0.0,70.0,255.0,255.0,255.0
563,28.150000000000002,4.999926303902657,0.0,-12.00000000000003,0.0006187231284204842,0.0,0.0,0.01741489846880384,0.0,0.0,0.0,70.0,255.0,255.0,255.0
564,28.200000000000003,4.999980685016587,0.0,-12.00000000000003,0.0015752756257469969,0.0,0.0,0.01750804262421468,0.0,0.0,0.0,70.0,255.0,255.0,255.0
565,28.25,5.000083831465232,0.0,-12.00000000000003,0.0023695273908419523,0.0,0.0,0.009753538750878477,0.0,0.0,0.0,70.0,255.0,255.0,255.0
566,28.3,5.0002176377556715,0.0,-12.00000000000003,0.0025506295008348445,0.0,0.0,-0.006941025774942489,0.0,0.0,0.0,70.0,255.0,255.0,255.0
567,28.35,5.000338894415315,0.0,-12.00000000000003,0.0016754248133477034,0.0,0.0,-0.031085188687551835,0.0,0.0,0.0,70.0,255.0,255.0,255.0
568,28.400000000000002,5.000385180237006,0.0,-12.00000000000003,-0.0005578893679203389,0.0,0.0,-0.05953762155890274,0.0,0.0,0.0,70.0,255.0,255.0,255.0
569,28.450000000000003,5.000283105478523,0.0,-12.00000000000003,-0.004278337342542571,0.0,0.0,-0.08871201618392277,0.0,0.0,0.0,70.0,255.0,255.0,255.0
570,28.5,4.999957346502752,0.0,-12.00000000000003,-0.009429090986312616,0.0,0.0,-0.11520094271304515,0.0,0.0,0.0,70.0,255.0,255.0,255.0
571,28.55,4.999340196379892,0.0,-12.00000000000003,-0.015798431613847086,0.0,0.0,-0.13698934838490828,0.0,0.0,0.0,70.0,255.0,255.0,255.0
572,28.6,4.998377503341367,0.0,-12.00000000000003,-0.023128025824803444,0.0,0.0,-0.15367997446222859,0.0,0.0,0.0,70.0,255.0,255.0,255.0
573,28.650000000000002,4.997027393797412,0.0,-12.00000000000003,-0.031166429060069945,0.0,0.0,-0.16531233764096598,0.0,0.0,0.0,70.0,255.0,255.0,255.0
574,28.700000000000003,4.99526086043536,0.0,-12.00000000000003,-0.03965925958890004,0.0,0.0,-0.17211265854006896,0.0,0.0,0.0,70.0,255.0,255.0,255.0
575,28.75,4.993061467838522,0.0,-12.00000000000003,-0.04837769491407684,0.0,0.0,-0.17477429004317813,0.0,0.0,0.0,70.0,255.0,255.0,255.0
576,28.8,4.990423090943953,0.0,-12.00000000000003,-0.057136688593217855,0.0,0.0,-0.17397579980036326,0.0,0.0,0.0,70.0,255.0,255.0,255.0
577,28.85,4.9873477989792,0.0,-12.00000000000003,-0.06577527489411317,0.0,0.0,-0.17028479691392207,0.0,0.0,0.0,70.0,255.0,255.0,255.0
578,28.900000000000002,4.983845563454541,0.0,-12.00000000000003,-0.07416516828461006,0.0,0.0,-0.1647477598118563,0.0,0.0,0.0,70.0,255.0,255.0,255.0
579,28.950000000000003,4.979931282150739,0.0,-12.00000000000003,-0.0822500508752988,0.0,0.0,-0.1590010792589247,0.0,0.0,0.0,70.0,255.0,255.0,255.0
580,29.0,4.9756205583670114,0.0,-12.00000000000003,-0.09006527621050253,0.0,0.0,-0.15487224676453692,0.0,0.0,0.0,70.0,255.0,255.0,255.0
581,29.05,4.970924754529689,0.0,-12.00000000000003,-0.09773727555175249,0.0,0.0,-0.15337169483835567,0.0,0.0,0.0,70.0,255.0,255.0,255.0
582,29.1,4.965846830811836,0.0,-12.00000000000003,-0.1054024456943381,0.0,0.0,-0.15400470734601157,0.0,0.0,0.0,70.0,255.0,255.0,255.0
583,29.150000000000002,4.960384509960255,0.0,-12.00000000000003,-0.11313774628635365,0.0,0.0,-0.15566380259857127,0.0,0.0,0.0,70.0,255.0,255.0,255.0
584,29.200000000000003,4.954533056183201,0.0,-12.00000000000003,-0.12096882595419522,0.0,0.0,-0.15732600810673958,0.0,0.0,0.0,70.0,255.0,255.0,255.0
585,29.25,4.948287627364835,0.0,-12.00000000000003,-0.1288703470970276,0.0,0.0,-0.15796982313212027,0.0,0.0,0.0,70.0,255.0,255.0,255.0
586,29.3,4.941646021473498,0.0,-12.00000000000003,-0.13676580826740725,0.0,0.0,-0.1570409173502263,0.0,0.0,0.0,70.0,255.0,255.0,255.0
587,29.35,4.934611046538095,0.0,-12.00000000000003,-0.14457443883205023,0.0,0.0,-0.1548726907179443,0.0,0.0,0.0,70.0,255.0,255.0,255.0
588,29.400000000000002,4.927188577590293,0.0,-12.00000000000003,-0.15225307733920168,0.0,0.0,-0.15217819529480536,0.0,0.0,0.0,70.0,255.0,255.0,255.0
589,29.450000000000003,4.919385738804174,0.0,-12.00000000000003,-0.15979225836153077,0.0,0.0,-0.14962272048171243,0.0,0.0,0.0,70.0,255.0,255.0,255.0
590,29.5,4.91120935175414,0.0,-12.00000000000003,-0.16721534938737292,0.0,0.0,-0.1478522835506091,0.0,0.0,0.0,70.0,255.0,255.0,255.0
591,29.55,4.902664203865437,0.0,-12.00000000000003,-0.17457748671659168,0.0,0.0,-0.14721092946725634,0.0,0.0,0.0,70.0,255.0,255.0,255.0
592,29.6,4.893751603082481,0.0,-12.00000000000003,-0.18193644233409856,0.0,0.0,-0.14749100996933606,0.0,0.0,0.0,70.0,255.0,255.0,255.0
593,29.650000000000002,4.884470559632027,0.0,-12.00000000000003,-0.18932658771352529,0.0,0.0,-0.14823693603593924,0.0,0.0,0.0,70.0,255.0,255.0,255.0
594,29.700000000000003,4.874818944311128,0.0,-12.00000000000003,-0.19676013593769248,0.0,0.0,-0.1490032498258742,0.0,0.0,0.0,70.0,255.0,255.0,255.0
595,29.75,4.864794546038258,0.0,-12.00000000000003,-0.2042269126961127,0.0,0.0,-0.14935707996137637,0.0,0.0,0.0,70.0,255.0,255.0,255.0
596,29.8,4.854396253041517,0.0,-12.00000000000003,-0.21169584393383012,0.0,0.0,-0.1490565302827207,0.0,0.0,0.0,70.0,255.0,255.0,255.0
597,29.85,4.843624961644875,0.0,-12.00000000000003,-0.21913256572438478,0.0,0.0,-0.14817324609452953,0.0,0.0,0.0,70.0,255.0,255.0,255.0
598,29.900000000000002,4.8324829964690785,0.0,-12.00000000000003,-0.22651316854328307,0.0,0.0,-0.14690240554893208,0.0,0.0,0.0,70.0,255.0,255.0,255.0
599,29.950000000000003,4.820973644790547,0.0,-12.00000000000003,-0.23382280627927798,0.0,0.0,-0.14543187928319767,0.0,0.0,0.0,70.0,255.0,255.0,255.0
600,30.0,4.809100715841151,0.0,-12.00000000000003,-0.24105635647160284,0.0,0.0,-0.1439473686323467,0.0,0.0,0.0,70.0,255.0,255.0,255.0
601,30.05,4.796868009143386,0.0,-12.00000000000003,-0.24821754314251265,0.0,0.0,-0.14256798436624862,0.0,0.0,0.0,70.0,255.0,255.0,255.0
602,30.1,4.7842789615268995,0.0,-12.00000000000003,-0.2553131549082277,0.0,0.0,-0.14133320844917918,0.0,0.0,0.0,70.0,255.0,255.0,255.0
603,30.150000000000002,4.771336693652564,0.0,-12.00000000000003,-0.26235086398743057,0.0,0.0,-0.1402787564534158,0.0,0.0,0.0,70.0,255.0,255.0,255.0
604,30.200000000000003,4.758043875128156,0.0,-12.00000000000003,-0.2693410305535693,0.0,0.0,-0.13945440786740093,0.0,0.0,0.0,70.0,255.0,255.0,255.0
605,30.25,4.744402590597207,0.0,-12.00000000000003,-0.27629630477417066,0.0,0.0,-0.1389054734812767,0.0,0.0,0.0,70.0,255.0,255.0,255.0
606,30.3,4.730414244650739,0.0,-12.00000000000003,-0.28323157790169695,0.0,0.0,-0.13863927117974129,0.0,0.0,0.0,70.0,255.0,255.0,255.0
607,30.35,4.716079432807037,0.0,-12.00000000000003,-0.2901602318921448,0.0,0.0,-0.13857037698539187,0.0,0.0,0.0,70.0,255.0,255.0,255.0
608,30.400000000000002,4.701398221461525,0.0,-12.00000000000003,-0.29708861560023614,0.0,0.0,-0.13854443343879197,0.0,0.0,0.0,70.0,255.0,255.0,255.0
609,30.450000000000003,4.686370571247013,0.0,-12.00000000000003,-0.304014675236024,0.0,0.0,-0.13839151488825863,0.0,0.0,0.0,70.0,255.0,255.0,255.0
610,30.5,4.6709967539379225,0.0,-12.00000000000003,-0.310927767089062,0.0,0.0,-0.13794271879490339,0.0,0.0,0.0,70.0,255.0,255.0,255.0
611,30.55,4.655277794538107,0.0,-12.00000000000003,-0.31780894711551433,0.0,0.0,-0.13711493091532745,0.0,0.0,0.0,70.0,255.0,255.0,255.0
612,30.6,4.639215859226371,0.0,-12.00000000000003,-0.32463926018059475,0.0,0.0,-0.1359906915340936,0.0,0.0,0.0,70.0,255.0,255.0,255.0
613,30.650000000000002,4.622813868520048,0.0,-12.00000000000003,-0.3314080162689237,0.0,0.0,-0.13473810186495072,0.0,0.0,0.0,70.0,255.0,255.0,255.0
614,30.700000000000003,4.606075057599479,0.0,-12.00000000000003,-0.3381130703670898,0.0,0.0,-0.1335328192936025,0.0,0.0,0.0,70.0,255.0,255.0,255.0
615,30.75,4.589002561483339,0.0,-12.00000000000003,-0.34476129819828394,0.0,0.0,-0.13255964201581705,0.0,0.0,0.0,70.0,255.0,255.0,255.0
616,30.8,4.57159892777965,0.0,-12.00000000000003,-0.3513690345686715,0.0,0.0,-0.1319137790519065,0.0,0.0,0.0,70.0,255.0,255.0,255.0
617,30.85,4.553865658026472,0.0,-12.00000000000003,-0.3579526761034746,0.0,0.0,-0.13150322051398433,0.0,0.0,0.0,70.0,255.0,255.0,255.0
618,30.900000000000002,4.535803660169303,0.0,-12.00000000000003,-0.36451935662006996,0.0,0.0,-0.1311476346248952,0.0,0.0,0.0,70.0,255.0,255.0,255.0
619,30.950000000000003,4.517413722364465,0.0,-12.00000000000003,-0.3710674395659641,0.0,0.0,-0.13067012169107883,0.0,0.0,0.0,70.0,255.0,255.0,255.0
620,31.0,4.498696916212706,0.0,-12.00000000000003,-0.37758636878917784,0.0,0.0,-0.12987875976246954,0.0,0.0,0.0,70.0,255.0,255.0,255.0
621,31.05,4.479655085485547,0.0,-12.00000000000003,-0.38405531554221106,0.0,0.0,-0.12868337944986763,0.0,0.0,0.0,70.0,255.0,255.0,255.0
622,31.1,4.460291384658485,0.0,-12.00000000000003,-0.3904547067341646,0.0,0.0,-0.12723913037264722,0.0,0.0,0.0,70.0,255.0,255.0,255.0
623,31.150000000000002,4.44060961481213,0.0,-12.00000000000003,-0.3967792285794758,0.0,0.0,-0.12582865567303259,0.0,0.0,0.0,70.0,255.0,255.0,255.0
624,31.200000000000003,4.420613461800538,0.0,-12.00000000000003,-0.40303757230146786,0.0,0.0,-0.12472655408206634,0.0,0.0,0.0,70.0,255.0,255.0,255.0
625,31.25,4.400305857581984,0.0,-12.00000000000003,-0.4092518839876824,0.0,0.0,-0.1242132443423749,0.0,0.0,0.0,70.0,255.0,255.0,255.0
626,31.3,4.3796882734017695,0.0,-12.00000000000003,-0.41545889673570535,0.0,0.0,-0.12441358892942844,0.0,0.0,0.0,70.0,255.0,255.0,255.0
627,31.35,4.358759967908413,0.0,-12.00000000000003,-0.42169324288062526,0.0,0.0,-0.12509401090872174,0.0,0.0,0.0,70.0,255.0,255.0,255.0
628,31.400000000000002,4.337518949113707,0.0,-12.00000000000003,-0.4279682978265775,0.0,0.0,-0.12582231144788736,0.0,0.0,0.0,70.0,255.0,255.0,255.0
629,31.450000000000003,4.315963138125755,0.0,-12.00000000000003,-0.434275474025414,0.0,0.0,-0.12616482748217805,0.0,0.0,0.0,70.0,255.0,255.0,255.0
630,31.5,4.2940914017111655,0.0,-12.00000000000003,-0.44058478057479533,0.0,0.0,-0.1256923188114989,0.0,0.0,0.0,70.0,255.0,255.0,255.0
631,31.55,4.271904660068276,0.0,-12.00000000000003,-0.4468447059065639,0.0,0.0,-0.12420137905184703,0.0,0.0,0.0,70.0,255.0,255.0,255.0
632,31.6,4.249406931120509,0.0,-12.00000000000003,-0.45300491847998003,0.0,0.0,-0.12195648100394862,0.0,0.0,0.0,70.0,255.0,255.0,255.0
633,31.650000000000002,4.226604168220278,0.0,-12.00000000000003,-0.45904035400695875,0.0,0.0,-0.11947212184475475,0.0,0.0,0.0,70.0,255.0,255.0,255.0
634,31.700000000000003,4.203502895719813,0.0,-12.00000000000003,-0.4649521306644555,0.0,0.0,-0.1172729704886244,0.0,0.0,0.0,70.0,255.0,255.0,255.0
635,31.75,4.180108955153832,0.0,-12.00000000000003,-0.4707676510558212,0.0,0.0,-0.11588144311582838,0.0,0.0,0.0,70.0,255.0,255.0,255.0
636,31.8,4.156426130614231,0.0,-12.00000000000003,-0.47654027497603835,0.0,0.0,-0.11556075500314122,0.0,0.0,0.0,70.0,255.0,255.0,255.0
637,31.85,4.132454927656228,0.0,-12.00000000000003,-0.4823237265561353,0.0,0.0,-0.11606654526197246,0.0,0.0,0.0,70.0,255.0,255.0,255.0
638,31.900000000000002,4.108193757958618,0.0,-12.00000000000003,-0.4881469295022356,0.0,0.0,-0.11690272098645593,0.0,0.0,0.0,70.0,255.0,255.0,255.0
639,31.950000000000003,4.083640234706005,0.0,-12.00000000000003,-0.4940139986547809,0.0,0.0,-0.11757014371056584,0.0,0.0,0.0,70.0,255.0,255.0,255.0
640,32.0,4.0587923580931395,0.0,-12.00000000000003,-0.4999039438732922,0.0,0.0,-0.1175699739929037,0.0,0.0,0.0,70.0,255.0,255.0,255.0
641,32.050000000000004,4.033649840318676,0.0,-12.00000000000003,-0.5057709960540713,0.0,0.0,-0.11664296690234721,0.0,0.0,0.0,70.0,255.0,255.0,255.0
642,32.1,4.008215258487732,0.0,-12.00000000000003,-0.5115682405635269,0.0,0.0,-0.11498908620022341,0.0,0.0,0.0,70.0,255.0,255.0,255.0
643,32.15,3.982493016262323,0.0,-12.00000000000003,-0.5172699046740936,0.0,0.0,-0.11302440679772374,0.0,0.0,0.0,70.0,255.0,255.0,255.0
644,32.2,3.956488268020323,0.0,-12.00000000000003,-0.5228706812432993,0.0,0.0,-0.1111601143426455,0.0,0.0,0.0,70.0,255.0,255.0,255.0
645,32.25,3.930205948137993,0.0,-12.00000000000003,-0.5283859161083582,0.0,0.0,-0.10980658631960516,0.0,0.0,0.0,70.0,255.0,255.0,255.0
646,32.300000000000004,3.9036496764094872,0.0,-12.00000000000003,-0.5338513398752598,0.0,0.0,-0.10918001142012912,0.0,0.0,0.0,70.0,255.0,255.0,255.0
647,32.35,3.876820814150467,0.0,-12.00000000000003,-0.5393039172503711,0.0,0.0,-0.10912806564808974,0.0,0.0,0.0,70.0,255.0,255.0,255.0
648,32.4,3.84971928468445,0.0,-12.00000000000003,-0.5447641464400688,0.0,0.0,-0.1093295352727619,0.0,0.0,0.0,70.0,255.0,255.0,255.0
649,32.45,3.82234439950646,0.0,-12.00000000000003,-0.5502368707776473,0.0,0.0,-0.10946902595838637,0.0,0.0,0.0,70.0,255.0,255.0,255.0
650,32.5,3.7946955976066854,0.0,-12.00000000000003,-0.5557110490359074,0.0,0.0,-0.10922773667219055,0.0,0.0,0.0,70.0,255.0,255.0,255.0
651,32.550000000000004,3.7667732946028694,0.0,-12.00000000000003,-0.5611596444448663,0.0,0.0,-0.10843764009864643,0.0,0.0,0.0,70.0,255.0,255.0,255.0
652,32.6,3.7385796331621988,0.0,-12.00000000000003,-0.566554813045772,0.0,0.0,-0.10722499153414944,0.0,0.0,0.0,70.0,255.0,255.0,255.0
653,32.65,3.710117813298292,0.0,-12.00000000000003,-0.5718821435982813,0.0,0.0,-0.10585027262339786,0.0,0.0,0.0,70.0,255.0,255.0,255.0
654,32.7,3.6813914188023706,0.0,-12.00000000000003,-0.5771398403081118,0.0,0.0,-0.10456415478388159,0.0,0.0,0.0,70.0,255.0,255.0,255.0
655,32.75,3.652403829267481,0.0,-12.00000000000003,-0.5823385590766694,0.0,0.0,-0.10361440172359515,0.0,0.0,0.0,70.0,255.0,255.0,255.0
656,32.800000000000004,3.6231575628947037,0.0,-12.00000000000003,-0.5875012804804713,0.0,0.0,-0.10312928832609813,0.0,0.0,0.0,70.0,255.0,255.0,255.0
657,32.85,3.593653701219434,0.0,-12.00000000000003,-0.5926514879092792,0.0,0.0,-0.10300656028996436,0.0,0.0,0.0,70.0,255.0,255.0,255.0
658,32.9,3.5638924141037758,0.0,-12.00000000000003,-0.5978019365094678,0.0,0.0,-0.1030347821580957,0.0,0.0,0.0,70.0,255.0,255.0,255.0
659,32.95,3.533873507568487,0.0,-12.00000000000003,-0.6029549661250888,0.0,0.0,-0.10300778147973588,0.0,0.0,0.0,70.0,255.0,255.0,255.0
660,33.0,3.503596917491267,0.0,-12.00000000000003,-0.6081027146574414,0.0,0.0,-0.1027306937295247,0.0,0.0,0.0,70.0,255.0,255.0,255.0
661,33.050000000000004,3.473063236102743,0.0,-12.00000000000003,-0.6132280354980413,0.0,0.0,-0.10209863317069967,0.0,0.0,0.0,70.0,255.0,255.0,255.0
662,33.1,3.4422741139414628,0.0,-12.00000000000003,-0.6183125779745113,0.0,0.0,-0.1011541752315992,0.0,0.0,0.0,70.0,255.0,255.0,255.0
663,33.15,3.411231978305292,0.0,-12.00000000000003,-0.6233434530212012,0.0,0.0,-0.10000519081816428,0.0,0.0,0.0,70.0,255.0,255.0,255.0
664,33.2,3.3799397686393426,0.0,-12.00000000000003,-0.6283130970563278,0.0,0.0,-0.09876471929723962,0.0,0.0,0.0,70.0,255.0,255.0,255.0
665,33.25,3.348400668599659,0.0,-12.00000000000003,-0.6332199249509252,0.0,0.0,-0.09755084200651076,0.0,0.0,0.0,70.0,255.0,255.0,255.0
666,33.300000000000004,3.31661777614425,0.0,-12.00000000000003,-0.6380681812569788,0.0,0.0,-0.09643515335060471,0.0,0.0,0.0,70.0,255.0,255.0,255.0
667,33.35,3.284593850473961,0.0,-12.00000000000003,-0.6428634402859856,0.0,0.0,-0.0954148739817029,0.0,0.0,0.0,70.0,255.0,255.0,255.0
668,33.4,3.2523314321156516,0.0,-12.00000000000003,-0.6476096686551491,0.0,0.0,-0.09446799769201597,0.0,0.0,0.0,70.0,255.0,255.0,255.0
669,33.45,3.219832883608446,0.0,-12.00000000000003,-0.6523102400551872,0.0,0.0,-0.0935790289766203,0.0,0.0,0.0,70.0,255.0,255.0,255.0
670,33.5,3.187100408110133,0.0,-12.00000000000003,-0.6569675715528112,0.0,0.0,-0.09271796621681538,0.0,0.0,0.0,70.0,255.0,255.0,255.0
671,33.550000000000004,3.154136126453165,0.0,-12.00000000000003,-0.6615820366768688,0.0,0.0,-0.09186797953537607,0.0,0.0,0.0,70.0,255.0,255.0,255.0
672,33.6,3.120942204442446,0.0,-12.00000000000003,-0.6661543695063488,0.0,0.0,-0.09106455727918572,0.0,0.0,0.0,70.0,255.0,255.0,255.0
673,33.65,3.0875206895025302,0.0,-12.00000000000003,-0.6706884924047873,0.0,0.0,-0.09036375081348247,0.0,0.0,0.0,70.0,255.0,255.0,255.0
674,33.7,3.0538733552019672,0.0,-12.00000000000003,-0.675190744587697,0.0,0.0,-0.08980625104362261,0.0,0.0,0.0,70.0,255.0,255.0,255.0
675,33.75,3.0200016150437605,0.0,-12.00000000000003,-0.6796691175091496,0.0,0.0,-0.0894292278586839,0.0,0.0,0.0,70.0,255.0,255.0,255.0
676,33.800000000000004,2.9859064434510523,0.0,-12.00000000000003,-0.6841336673735654,0.0,0.0,-0.08924052757617318,0.0,0.0,0.0,70.0,255.0,255.0,255.0
677,33.85,2.951588248306404,0.0,-12.00000000000003,-0.6885931702667669,0.0,0.0,-0.08916605774040853,0.0,0.0,0.0,70.0,255.0,255.0,255.0
678,33.9,2.9170471264243756,0.0,-12.00000000000003,-0.6930502731476063,0.0,0.0,-0.08907615989230955,0.0,0.0,0.0,70.0,255.0,255.0,255.0
679,33.95,2.8822832209916434,0.0,-12.00000000000003,-0.6975007862559979,0.0,0.0,-0.08883699249002674,0.0,0.0,0.0,70.0,255.0,255.0,255.0
680,34.0,2.847297047798776,0.0,-12.00000000000003,-0.7019339723966089,0.0,0.0,-0.08832111302501389,0.0,0.0,0.0,70.0,255.0,255.0,255.0
681,34.050000000000004,2.8120898237519825,0.0,-12.00000000000003,-0.7063328975584993,0.0,0.0,-0.0874693973398788,0.0,0.0,0.0,70.0,255.0,255.0,255.0
682,34.1,2.776663758042926,0.0,-12.00000000000003,-0.7106809121305968,0.0,0.0,-0.08635568728361243,0.0,0.0,0.0,70.0,255.0,255.0,255.0
683,34.15,2.741021732538923,0.0,-12.00000000000003,-0.7149684662868605,0.0,0.0,-0.08512797325286314,0.0,0.0,0.0,70.0,255.0,255.0,255.0
684,34.2,2.70516691141424,0.0,-12.00000000000003,-0.7191937094558831,0.0,0.0,-0.08394526617565568,0.0,0.0,0.0,70.0,255.0,255.0,255.0
685,34.25,2.6691023615933345,0.0,-12.00000000000003,-0.7233629929044261,0.0,0.0,-0.08297433868982296,0.0,0.0,0.0,70.0,255.0,255.0,255.0
686,34.300000000000004,2.632830612123797,0.0,-12.00000000000003,-0.7274911433248654,0.0,0.0,-0.08230137024423101,0.0,0.0,0.0,70.0,255.0,255.0,255.0
687,34.35,2.596353247260848,0.0,-12.00000000000003,-0.7315931299288492,0.0,0.0,-0.0818475567613497,0.0,0.0,0.0,70.0,255.0,255.0,255.0
688,34.4,2.5596712991309123,0.0,-12.00000000000003,-0.7356758990010004,0.0,0.0,-0.08145642261996322,0.0,0.0,0.0,70.0,255.0,255.0,255.0
689,34.45,2.522785657360748,0.0,-12.00000000000003,-0.7397387721908455,0.0,0.0,-0.08097485656013426,0.0,0.0,0.0,70.0,255.0,255.0,255.0
690,34.5,2.4856974219118277,0.0,-12.00000000000003,-0.7437733846570138,0.0,0.0,-0.08024157883599337,0.0,0.0,0.0,70.0,255.0,255.0,255.0
691,34.550000000000004,2.4484083188950465,0.0,-12.00000000000003,-0.7477629300744448,0.0,0.0,-0.07917854825731929,0.0,0.0,0.0,70.0,255.0,255.0,255.0
692,34.6,2.4109211289043833,0.0,-12.00000000000003,-0.7516912394827457,0.0,0.0,-0.07789678963359137,0.0,0.0,0.0,70.0,255.0,255.0,255.0
693,34.65,2.373239194946772,0.0,-12.00000000000003,-0.755552609037804,0.0,0.0,-0.07660363230379552,0.0,0.0,0.0,70.0,255.0,255.0,255.0
694,34.7,2.335365868000603,0.0,-12.00000000000003,-0.7593516027131253,0.0,0.0,-0.07550188101048683,0.0,0.0,0.0,70.0,255.0,255.0,255.0
695,34.75,2.2973040346754594,0.0,-12.00000000000003,-0.7631027971388527,0.0,0.0,-0.07479929934608442,0.0,0.0,0.0,70.0,255.0,255.0,255.0
696,34.800000000000004,2.2590555882867176,0.0,-12.00000000000003,-0.7668315326477337,0.0,0.0,-0.07459152297419891,0.0,0.0,0.0,70.0,255.0,255.0,255.0
697,34.85,2.220620881410686,0.0,-12.00000000000003,-0.7705619494362725,0.0,0.0,-0.0747208091801177,0.0,0.0,0.0,70.0,255.0,255.0,255.0
698,34.9,2.1819993933430903,0.0,-12.00000000000003,-0.7743036135657455,0.0,0.0,-0.0748926845278941,0.0,0.0,0.0,70.0,255.0,255.0,255.0
699,34.95,2.1431905200541115,0.0,-12.00000000000003,-0.778051217889062,0.0,0.0,-0.07481155879163204,0.0,0.0,0.0,70.0,255.0,255.0,255.0
700,35.0,2.104194271554184,0.0,-12.00000000000003,-0.7817847694449087,0.0,0.0,-0.07417726107545874,0.0,0.0,0.0,70.0,255.0,255.0,255.0
701,35.050000000000004,2.0650120431096206,0.0,-12.00000000000003,-0.7854689439966078,0.0,0.0,-0.0728482735997682,0.0,0.0,0.0,70.0,255.0,255.0,255.0
702,35.1,2.0256473771545234,0.0,-12.00000000000003,-0.7890695968048855,0.0,0.0,-0.07102715313334063,0.0,0.0,0.0,70.0,255.0,255.0,255.0
703,35.15,1.986105083429132,0.0,-12.00000000000003,-0.7925716593099419,0.0,0.0,-0.06909928925713515,0.0,0.0,0.0,70.0,255.0,255.0,255.0
704,35.2,1.9463902112235292,0.0,-12.00000000000003,-0.795979525730599,0.0,0.0,-0.06745123114233476,0.0,0.0,0.0,70.0,255.0,255.0,255.0
705,35.25,1.9065071308560722,0.0,-12.00000000000003,-0.7993167824241754,0.0,0.0,-0.06646760040853739,0.0,0.0,0.0,70.0,255.0,255.0,255.0
706,35.300000000000004,1.8664585329811116,0.0,-12.00000000000003,-0.8026262857714528,0.0,0.0,-0.0663357555878763,0.0,0.0,0.0,70.0,255.0,255.0,255.0
707,35.35,1.8262445022789269,0.0,-12.00000000000003,-0.805950357982963,0.0,0.0,-0.06684069483635646,0.0,0.0,0.0,70.0,255.0,255.0,255.0
708,35.4,1.7858634971828153,0.0,-12.00000000000003,-0.8093103552550884,0.0,0.0,-0.06755920273142646,0.0,0.0,0.0,70.0,255.0,255.0,255.0
709,35.45,1.745313466753418,0.0,-12.00000000000003,-0.8127062782561056,0.0,0.0,-0.06806416931970372,0.0,0.0,0.0,70.0,255.0,255.0,255.0
710,35.5,1.7045928693572048,0.0,-12.00000000000003,-0.8161167721870588,0.0,0.0,-0.06793238391094025,0.0,0.0,0.0,70.0,255.0,255.0,255.0
711,35.550000000000004,1.6637017895347121,0.0,-12.00000000000003,-0.8194995166471997,0.0,0.0,-0.06694884390969769,0.0,0.0,0.0,70.0,255.0,255.0,255.0
712,35.6,1.6226429176924848,0.0,-12.00000000000003,-0.8228116565780286,0.0,0.0,-0.06530088337211026,0.0,0.0,0.0,70.0,255.0,255.0,255.0
713,35.65,1.5814206238769093,0.0,-12.00000000000003,-0.8260296049844107,0.0,0.0,-0.06337308396526797,0.0,0.0,0.0,70.0,255.0,255.0,255.0
714,35.7,1.5400399571940437,0.0,-12.00000000000003,-0.8291489649745554,0.0,0.0,-0.0615519517183305,0.0,0.0,0.0,70.0,255.0,255.0,255.0
715,35.75,1.4985057273794538,0.0,-12.00000000000003,-0.8321848001562437,0.0,0.0,-0.06022281732800394,0.0,0.0,0.0,70.0,255.0,255.0,255.0
716,35.800000000000004,1.4568214771784194,0.0,-12.00000000000003,-0.8351712467073558,0.0,0.0,-0.05958821609359788,0.0,0.0,0.0,70.0,255.0,255.0,255.0
717,35.85,1.4149886027087182,0.0,-12.00000000000003,-0.8381436217656035,0.0,0.0,-0.05950672738632701,0.0,0.0,0.0,70.0,255.0,255.0,255.0
718,35.9,1.373007115001859,0.0,-12.00000000000003,-0.8411219194459885,0.0,0.0,-0.05967834485649526,0.0,0.0,0.0,70.0,255.0,255.0,255.0
719,35.95,1.3308764107641193,0.0,-12.00000000000003,-0.8441114562512531,0.0,0.0,-0.05980765084625528,0.0,0.0,0.0,70.0,255.0,255.0,255.0
720,36.0,1.2885959693767337,0.0,-12.00000000000003,-0.847102684530614,0.0,0.0,-0.05960040272137146,0.0,0.0,0.0,70.0,255.0,255.0,255.0
721,36.050000000000004,1.246166142311058,0.0,-12.00000000000003,-0.8500714965233902,0.0,0.0,-0.05889894439743415,0.0,0.0,0.0,70.0,255.0,255.0,255.0
722,36.1,1.2035888197243947,0.0,-12.00000000000003,-0.8529925789703574,0.0,0.0,-0.0577985474089715,0.0,0.0,0.0,70.0,255.0,255.0,255.0
723,36.15,1.1608668844140222,0.0,-12.00000000000003,-0.8558513512642874,0.0,0.0,-0.05650635712068919,0.0,0.0,0.0,70.0,255.0,255.0,255.0
724,36.2,1.118003684597966,0.0,-12.00000000000003,-0.8586432146824263,0.0,0.0,-0.0552245311434163,0.0,0.0,0.0,70.0,255.0,255.0,255.0
725,36.25,1.0750025629457796,0.0,-12.00000000000003,-0.861373804378629,0.0,0.0,-0.05415953449067201,0.0,0.0,0.0,70.0,255.0,255.0,255.0
726,36.300000000000004,1.031866304160103,0.0,-12.00000000000003,-0.8640591681314935,0.0,0.0,-0.05342206692365847,0.0,0.0,0.0,70.0,255.0,255.0,255.0
727,36.35,0.9885966461326302,0.0,-12.00000000000003,-0.8667160110709948,0.0,0.0,-0.05293544661411076,0.0,0.0,0.0,70.0,255.0,255.0,255.0
728,36.4,0.9451947030530036,0.0,-12.00000000000003,-0.8693527127929046,0.0,0.0,-0.052540702184256105,0.0,0.0,0.0,70.0,255.0,255.0,255.0
729,36.45,0.9016613748533397,0.0,-12.00000000000003,-0.8719700812894204,0.0,0.0,-0.052087138332823635,0.0,0.0,0.0,70.0,255.0,255.0,255.0
730,36.5,0.8579976949240615,0.0,-12.00000000000003,-0.874561426626187,0.0,0.0,-0.05142150593623329,0.0,0.0,0.0,70.0,255.0,255.0,255.0
731,36.550000000000004,0.814205232190721,0.0,-12.00000000000003,-0.8771122318830438,0.0,0.0,-0.05046621448225874,0.0,0.0,0.0,70.0,255.0,255.0,255.0
732,36.6,0.7702864717357572,0.0,-12.00000000000003,-0.8796080480744128,0.0,0.0,-0.04930237009735938,0.0,0.0,0.0,70.0,255.0,255.0,255.0
733,36.65,0.7262444273832798,0.0,-12.00000000000003,-0.8820424688927797,0.0,0.0,-0.04808813017862512,0.0,0.0,0.0,70.0,255.0,255.0,255.0
734,36.7,0.6820822248464792,0.0,-12.00000000000003,-0.8844168610922754,0.0,0.0,-0.04697348895157383,0.0,0.0,0.0,70.0,255.0,255.0,255.0
735,36.75,0.6378027412740522,0.0,-12.00000000000003,-0.8867398177879371,0.0,0.0,-0.046094395144613554,0.0,0.0,0.0,70.0,255.0,255.0,255.0
736,36.800000000000004,0.5934082430676855,0.0,-12.00000000000003,-0.8890263006067367,0.0,0.0,-0.04552016139528492,0.0,0.0,0.0,70.0,255.0,255.0,255.0
737,36.85,0.5489001112133786,0.0,-12.00000000000003,-0.8912918339274656,0.0,0.0,-0.04521059747192857,0.0,0.0,0.0,70.0,255.0,255.0,255.0
738,36.9,0.5042790596749389,0.0,-12.00000000000003,-0.8935473603539296,0.0,0.0,-0.04507041346398233,0.0,0.0,0.0,70.0,255.0,255.0,255.0
739,36.95,0.4595453751779856,0.0,-12.00000000000003,-0.8957988752738638,0.0,0.0,-0.044999418681312964,0.0,0.0,0.0,70.0,255.0,255.0,255.0
740,37.0,0.41469917214755253,0.0,-12.00000000000003,-0.8980473022220609,0.0,0.0,-0.044912894837584316,0.0,0.0,0.0,70.0,255.0,255.0,255.0
741,37.050000000000004,0.3697406449557795,0.0,-12.00000000000003,-0.9002901647576222,0.0,0.0,-0.04475365275789511,0.0,0.0,0.0,70.0,255.0,255.0,255.0
742,37.1,0.3246701556717903,0.0,-12.00000000000003,-0.9025226674978504,0.0,0.0,-0.04445887637848034,0.0,0.0,0.0,70.0,255.0,255.0,255.0
743,37.15,0.2794883782059945,0.0,-12.00000000000003,-0.9047360523954703,0.0,0.0,-0.04394574044009336,0.0,0.0,0.0,70.0,255.0,255.0,255.0
744,37.2,0.23419655043224327,0.0,-12.00000000000003,-0.9069172415418597,0.0,0.0,-0.043136062430298994,0.0,0.0,0.0,70.0,255.0,255.0,255.0
745,37.25,0.1887966540518085,0.0,-12.00000000000003,-0.9090496586385002,0.0,0.0,-0.04195006280136804,0.0,0.0,0.0,70.0,255.0,255.0,255.0
746,37.300000000000004,0.14329158456839325,0.0,-12.00000000000003,-0.9111122478219965,0.0,0.0,-0.04037040239910694,0.0,0.0,0.0,70.0,255.0,255.0,255.0
747,37.35,0.09768542926960885,0.0,-12.00000000000003,-0.9130866988784109,0.0,0.0,-0.03855650773668229,0.0,0.0,0.0,70.0,255.0,255.0,255.0
748,37.4,0.05198291468055216,0.0,-12.00000000000003,-0.9149678985956647,0.0,0.0,-0.036786531534721556,0.0,0.0,0.0,70.0,255.0,255.0,255.0
749,37.45,0.006188639410042376,0.0,-12.00000000000003,-0.916765352031883,0.0,0.0,-0.035348079849092384,0.0,0.0,0.0,70.0,255.0,255.0,255.0
750,37.5,-0.03969362052263615,0.0,-12.00000000000003,-0.918502706580574,0.0,0.0,-0.03452284463310029,0.0,0.0,0.0,70.0,255.0,255.0,255.0
751,37.550000000000004,-0.08566163124801503,0.0,-12.00000000000003,-0.9202176364951931,0.0,0.0,-0.034439050000824034,0.0,0.0,0.0,70.0,255.0,255.0,255.0
752,37.6,-0.13171538417215545,0.0,-12.00000000000003,-0.9219466115806564,0.0,0.0,-0.034906141625820064,0.0,0.0,0.0,70.0,255.0,255.0,255.0
753,37.65,-0.17785629240608067,0.0,-12.00000000000003,-0.9237082506577751,0.0,0.0,-0.03555540614744279,0.0,0.0,0.0,70.0,255.0,255.0,255.0
754,37.7,-0.22408620923793296,0.0,-12.00000000000003,-0.9255021521954007,0.0,0.0,-0.03600607038760639,0.0,0.0,0.0,70.0,255.0,255.0,255.0
755,37.75,-0.27040650762562074,0.0,-12.00000000000003,-0.9273088576965357,0.0,0.0,-0.03588657731442346,0.0,0.0,0.0,70.0,255.0,255.0,255.0
756,37.800000000000004,-0.31681709500758654,0.0,-12.00000000000003,-0.929090809926843,0.0,0.0,-0.03500682417192147,0.0,0.0,0.0,70.0,255.0,255.0,255.0
757,37.85,-0.36331558861830504,0.0,-12.00000000000003,-0.9308095401137279,0.0,0.0,-0.03350974161084319,0.0,0.0,0.0,70.0,255.0,255.0,255.0
758,37.9,-0.4098980490189593,0.0,-12.00000000000003,-0.9324417840879273,0.0,0.0,-0.031701028023806144,0.0,0.0,0.0,70.0,255.0,255.0,255.0
759,37.95,-0.4565597670270978,0.0,-12.00000000000003,-0.9339796429161085,0.0,0.0,-0.02989421202684861,0.0,0.0,0.0,70.0,255.0,255.0,255.0
760,38.0,-0.5032960133105702,0.0,-12.00000000000003,-0.9354312052906122,0.0,0.0,-0.028402827461349034,0.0,0.0,0.0,70.0,255.0,255.0,255.0
761,38.050000000000004,-0.550102887556159,0.0,-12.00000000000003,-0.9368199256622434,0.0,0.0,-0.02739920109796623,0.0,0.0,0.0,70.0,255.0,255.0,255.0
762,38.1,-0.5969780058767945,0.0,-12.00000000000003,-0.9381711254004088,0.0,0.0,-0.02680761920356156,0.0,0.0,0.0,70.0,255.0,255.0,255.0
763,38.15,-0.6439200000961999,0.0,-12.00000000000003,-0.9395006875825995,0.0,0.0,-0.02644943280550871,0.0,0.0,0.0,70.0,255.0,255.0,255.0
764,38.2,-0.6909280746350545,0.0,-12.00000000000003,-0.9408160686809597,0.0,0.0,-0.026149482437298754,0.0,0.0,0.0,70.0,255.0,255.0,255.0
765,38.25,-0.7380016069642958,0.0,-12.00000000000003,-0.9421156358263294,0.0,0.0,-0.025718150136366802,0.0,0.0,0.0,70.0,255.0,255.0,255.0
766,38.300000000000004,-0.7851396382176874,0.0,-12.00000000000003,-0.9433878836945964,0.0,0.0,-0.02505082365125144,0.0,0.0,0.0,70.0,255.0,255.0,255.0
767,38.35,-0.8323403953337555,0.0,-12.00000000000003,-0.9446207181914545,0.0,0.0,-0.024221646376731965,0.0,0.0,0.0,70.0,255.0,255.0,255.0
768,38.400000000000006,-0.8796017100368329,0.0,-12.00000000000003,-0.9458100483322696,0.0,0.0,-0.023377697630488914,0.0,0.0,0.0,70.0,255.0,255.0,255.0
769,38.45,-0.9269214001669824,0.0,-12.00000000000003,-0.9469584879545034,0.0,0.0,-0.022648744005027144,0.0,0.0,0.0,70.0,255.0,255.0,255.0
770,38.5,-0.9742975588322832,0.0,-12.00000000000003,-0.9480749227327723,0.0,0.0,-0.022168488077045634,0.0,0.0,0.0,70.0,255.0,255.0,255.0
771,38.550000000000004,-1.0217288924402597,0.0,-12.00000000000003,-0.949175336762208,0.0,0.0,-0.021997877257706744,0.0,0.0,0.0,70.0,255.0,255.0,255.0
772,38.6,-1.069215092508504,0.0,-12.00000000000003,-0.950274710458543,0.0,0.0,-0.022024023727451603,0.0,0.0,0.0,70.0,255.0,255.0,255.0
773,38.650000000000006,-1.116756363486114,0.0,-12.00000000000003,-0.9513777391349532,0.0,0.0,-0.022040709073367637,0.0,0.0,0.0,70.0,255.0,255.0,255.0
774,38.7,-1.1643528664219993,0.0,-12.00000000000003,-0.9524787813658797,0.0,0.0,-0.02184948093653105,0.0,0.0,0.0,70.0,255.0,255.0,255.0
775,38.75,-1.212004241622702,0.0,-12.00000000000003,-0.9535626872286063,0.0,0.0,-0.021267944174918618,0.0,0.0,0.0,70.0,255.0,255.0,255.0
776,38.800000000000004,-1.25970913514486,0.0,-12.00000000000003,-0.9546055757833716,0.0,0.0,-0.020210068250325897,0.0,0.0,0.0,70.0,255.0,255.0,255.0
777,38.85,-1.307464799201039,0.0,-12.00000000000003,-0.9555836940536389,0.0,0.0,-0.018768505799893198,0.0,0.0,0.0,70.0,255.0,255.0,255.0
778,38.900000000000006,-1.3552675045502238,0.0,-12.00000000000003,-0.9564824263633609,0.0,0.0,-0.01713489731205442,0.0,0.0,0.0,70.0,255.0,255.0,255.0
779,38.95,-1.4031130418373752,0.0,-12.00000000000003,-0.9572971837848443,0.0,0.0,-0.015512306607701198,0.0,0.0,0.0,70.0,255.0,255.0,255.0
780,39.0,-1.4509972229287083,0.0,-12.00000000000003,-0.958033657024131,0.0,0.0,-0.014091763194490348,0.0,0.0,0.0,70.0,255.0,255.0,255.0
781,39.050000000000004,-1.4989164075397883,0.0,-12.00000000000003,-0.9587063601042933,0.0,0.0,-0.012981336920470099,0.0,0.0,0.0,70.0,255.0,255.0,255.0
782,39.1,-1.5468678589391376,0.0,-12.00000000000003,-0.959331790716178,0.0,0.0,-0.012175612746911924,0.0,0.0,0.0,70.0,255.0,255.0,255.0
783,39.150000000000006,-1.594849586611406,0.0,-12.00000000000003,-0.9599239213789845,0.0,0.0,-0.011626881166293401,0.0,0.0,0.0,70.0,255.0,255.0,255.0
784,39.2,-1.642860251077036,0.0,-12.00000000000003,-0.9604944788328074,0.0,0.0,-0.011280779812050667,0.0,0.0,0.0,70.0,255.0,255.0,255.0
785,39.25,-1.6908990344946868,0.0,-12.00000000000003,-0.9610519993601896,0.0,0.0,-0.011076984398394885,0.0,0.0,0.0,70.0,255.0,255.0,255.0
786,39.300000000000004,-1.738965451013055,0.0,-12.00000000000003,-0.9616021772726469,0.0,0.0,-0.010966122529221245,0.0,0.0,0.0,70.0,255.0,255.0,255.0
787,39.35,-1.7870592522219515,0.0,-12.00000000000003,-0.9621486116131117,0.0,0.0,-0.01088913645264089,0.0,0.0,0.0,70.0,255.0,255.0,255.0
788,39.400000000000006,-1.8351803121743662,0.0,-12.00000000000003,-0.9626910909179109,0.0,0.0,-0.01075496730091885,0.0,0.0,0.0,70.0,255.0,255.0,255.0
789,39.45,-1.8833283613137426,0.0,-12.00000000000003,-0.9632241083432036,0.0,0.0,-0.01045939931900719,0.0,0.0,0.0,70.0,255.0,255.0,255.0
790,39.5,-1.9315027230086865,0.0,-12.00000000000003,-0.9637370308498117,0.0,0.0,-0.009904261915139045,0.0,0.0,0.0,70.0,255.0,255.0,255.0
791,39.550000000000004,-1.9797020643987238,0.0,-12.00000000000003,-0.9642145345347175,0.0,0.0,-0.00904694685508467,0.0,0.0,0.0,70.0,255.0,255.0,255.0
792,39.6,-2.0279241764621583,0.0,-12.00000000000003,-0.9646417255353201,0.0,0.0,-0.00795231696708587,0.0,0.0,0.0,70.0,255.0,255.0,255.0
793,39.650000000000006,-2.0761662369522558,0.0,-12.00000000000003,-0.9650097662314261,0.0,0.0,-0.006749613267365007,0.0,0.0,0.0,70.0,255.0,255.0,255.0
794,39.7,-2.124425153085301,0.0,-12.00000000000003,-0.9653166868620566,0.0,0.0,-0.00558111009145712,0.0,0.0,0.0,70.0,255.0,255.0,255.0
795,39.75,-2.1726979056384614,0.0,-12.00000000000003,-0.9655678772405718,0.0,0.0,-0.004593986588163901,0.0,0.0,0.0,70.0,255.0,255.0,255.0
796,39.800000000000004,-2.220981940809358,0.0,-12.00000000000003,-0.965776085520873,0.0,0.0,-0.0038655772296447566,0.0,0.0,0.0,70.0,255.0,255.0,255.0
797,39.85,-2.2692755141905487,0.0,-12.00000000000003,-0.9659544349635363,0.0,0.0,-0.0033379593153970433,0.0,0.0,0.0,70.0,255.0,255.0,255.0
798,39.900000000000006,-2.3175773843057117,0.0,-12.00000000000003,-0.9661098814524127,0.0,0.0,-0.0028910551552296937,0.0,0.0,0.0,70.0,255.0,255.0,255.0
799,39.95,-2.36588650233579,0.0,-12.00000000000003,-0.9662435404790592,0.0,0.0,-0.0024090740684545864,0.0,0.0,0.0,70.0,255.0,255.0,255.0
800,40.0,-2.4142017383536176,0.0,-12.00000000000003,-0.9663507888592582,0.0,0.0,-0.0017798383511458127,0.0,0.0,0.0,70.0,255.0,255.0,255.0
801,40.050000000000004,-2.462521581221716,0.0,-12.00000000000003,-0.9664215243141738,0.0,0.0,-0.0009441707993662618,0.0,0.0,0.0,70.0,255.0,255.0,255.0
802,40.1,-2.510843890785035,0.0,-12.00000000000003,-0.9664452059391948,0.0,0.0,6.14502655871263e-05,0.0,0.0,0.0,70.0,255.0,255.0,255.0
803,40.150000000000006,-2.5591661018156353,0.0,-12.00000000000003,-0.9664153792876151,0.0,0.0,0.0011565378498890055,0.0,0.0,0.0,70.0,255.0,255.0,255.0
804,40.2,-2.6074854287137965,0.0,-12.00000000000003,-0.9663295521542059,0.0,0.0,0.0022641196520289952,0.0,0.0,0.0,70.0,255.0,255.0,255.0
805,40.25,-2.655799057031056,0.0,-12.00000000000003,-0.9661889673224122,0.0,0.0,0.0033213586421165786,0.0,0.0,0.0,70.0,255.0,255.0,255.0
806,40.300000000000004,-2.7041043254460377,0.0,-12.00000000000003,-0.9659974162899942,0.0,0.0,0.00428897371405057,0.0,0.0,0.0,70.0,255.0,255.0,255.0
807,40.35,-2.7523987986600553,0.0,-12.00000000000003,-0.9657600699510072,0.0,0.0,0.005134862215161462,0.0,0.0,0.0,70.0,255.0,255.0,255.0
808,40.400000000000006,-2.8006803324411385,0.0,-12.00000000000003,-0.9654839300684781,0.0,0.0,0.005822199792193672,0.0,0.0,0.0,70.0,255.0,255.0,255.0
809,40.45,-2.848947191666903,0.0,-12.00000000000003,-0.9651778499717878,0.0,0.0,0.006319308747171348,0.0,0.0,0.0,70.0,255.0,255.0,255.0
810,40.5,-2.8971981174383172,0.0,-12.00000000000003,-0.964851999193761,0.0,0.0,0.006590441079801224,0.0,0.0,0.0,70.0,255.0,255.0,255.0
811,40.550000000000004,-2.9454323915862792,0.0,-12.00000000000003,-0.9645188058638077,0.0,0.0,0.006633963589042224,0.0,0.0,0.0,70.0,255.0,255.0,255.0
812,40.6,-2.993649998024698,0.0,-12.00000000000003,-0.9641886028348567,0.0,0.0,0.006559940033934453,0.0,0.0,0.0,70.0,255.0,255.0,255.0
813,40.650000000000006,-3.041851251869765,0.0,-12.00000000000003,-0.9638628118604142,0.0,0.0,0.006555502141303293,0.0,0.0,0.0,70.0,255.0,255.0,255.0
814,40.7,-3.0900362792107394,0.0,-12.00000000000003,-0.9635330526207264,0.0,0.0,0.006810906431642394,0.0,0.0,0.0,70.0,255.0,255.0,255.0
815,40.75,-3.1382045571318375,0.0,-12.00000000000003,-0.96318172121725,0.0,0.0,0.007508858391824802,0.0,0.0,0.0,70.0,255.0,255.0,255.0
816,40.800000000000004,-3.1863544513324644,0.0,-12.00000000000003,-0.9627821667815439,0.0,0.0,0.00872948428458642,0.0,0.0,0.0,70.0,255.0,255.0,255.0
817,40.85,-3.234482773809992,0.0,-12.00000000000003,-0.9623087727887913,0.0,0.0,0.010339130562186938,0.0,0.0,0.0,70.0,255.0,255.0,255.0
818,40.900000000000006,-3.2825853286113436,0.0,-12.00000000000003,-0.9617482537253252,0.0,0.0,0.012080360406097057,0.0,0.0,0.0,70.0,255.0,255.0,255.0
819,40.95,-3.3306575991825245,0.0,-12.00000000000003,-0.9611007367481816,0.0,0.0,0.013684804454250354,0.0,0.0,0.0,70.0,255.0,255.0,255.0
820,41.0,-3.3786954022861617,0.0,-12.00000000000003,-0.9603797732799002,0.0,0.0,0.014894125353714927,0.0,0.0,0.0,70.0,255.0,255.0,255.0
821,41.050000000000004,-3.4266955765105145,0.0,-12.00000000000003,-0.9596113242128101,0.0,0.0,0.01557481255947124,0.0,0.0,0.0,70.0,255.0,255.0,255.0
822,41.1,-3.4746565347074427,0.0,-12.00000000000003,-0.9588222920239531,0.0,0.0,0.01581164960544612,0.0,0.0,0.0,70.0,255.0,255.0,255.0
823,41.150000000000006,-3.52257780571291,0.0,-12.00000000000003,-0.9580301592522655,0.0,0.0,0.015794944345381978,0.0,0.0,0.0,70.0,255.0,255.0,255.0
824,41.2,-3.5704595506326693,0.0,-12.00000000000003,-0.9572427975894149,0.0,0.0,0.015723162464587048,0.0,0.0,0.0,70.0,255.0,255.0,255.0
825,41.25,-3.6183020854718513,0.0,-12.00000000000003,-0.9564578430058068,0.0,0.0,0.01579464019410004,0.0,0.0,0.0,70.0,255.0,255.0,255.0
826,41.300000000000004,-3.66610533493325,0.0,-12.00000000000003,-0.9556633335700049,0.0,0.0,0.01612352654980498,0.0,0.0,0.0,70.0,255.0,255.0,255.0
827,41.35,-3.7138684188288518,0.0,-12.00000000000003,-0.9548454903508263,0.0,0.0,0.01668970225137123,0.0,0.0,0.0,70.0,255.0,255.0,255.0
828,41.400000000000006,-3.7615898839683326,0.0,-12.00000000000003,-0.9539943633448678,0.0,0.0,0.0174261092977801,0.0,0.0,0.0,70.0,255.0,255.0,255.0
829,41.45,-3.8092678551633385,0.0,-12.00000000000003,-0.9531028794210483,0.0,0.0,0.018268233332952022,0.0,0.0,0.0,70.0,255.0,255.0,255.0
830,41.5,-3.8569001719104374,0.0,-12.00000000000003,-0.9521675400115726,0.0,0.0,0.01913533251891586,0.0,0.0,0.0,70.0,255.0,255.0,255.0
831,41.550000000000004,-3.904484609164496,0.0,-12.00000000000003,-0.9511893461691567,0.0,0.0,0.01997882016930852,0.0,0.0,0.0,70.0,255.0,255.0,255.0
832,41.6,-3.952019106527353,0.0,-12.00000000000003,-0.9501696579946417,0.0,0.0,0.020828702228037344,0.0,0.0,0.0,70.0,255.0,255.0,255.0
833,41.650000000000006,-3.99950157496396,0.0,-12.00000000000003,-0.949106475946353,0.0,0.0,0.02173977930191029,0.0,0.0,0.0,70.0,255.0,255.0,255.0
834,41.7,-4.046929754121988,0.0,-12.00000000000003,-0.9479956800644507,0.0,0.0,0.02275150327113451,0.0,0.0,0.0,70.0,255.0,255.0,255.0
835,41.75,-4.094301142970405,0.0,-12.00000000000003,-0.9468313256192395,0.0,0.0,0.0239159644628284,0.0,0.0,0.0,70.0,255.0,255.0,255.0
836,41.800000000000004,-4.141612886683912,0.0,-12.00000000000003,-0.9456040836181678,0.0,0.0,0.025248279020040343,0.0,0.0,0.0,70.0,255.0,255.0,255.0
837,41.85,-4.188861551332222,0.0,-12.00000000000003,-0.9443064977172355,0.0,0.0,0.026636421237746788,0.0,0.0,0.0,70.0,255.0,255.0,255.0
838,41.900000000000006,-4.236043536455636,0.0,-12.00000000000003,-0.9429404414943932,0.0,0.0,0.027893001932532968,0.0,0.0,0.0,70.0,255.0,255.0,255.0
839,41.95,-4.283155595481661,0.0,-12.00000000000003,-0.9415171975239822,0.0,0.0,0.028839692975868303,0.0,0.0,0.0,70.0,255.0,255.0,255.0
840,42.0,-4.330195256208034,0.0,-12.00000000000003,-0.9400564721968063,0.0,0.0,0.029304865574086847,0.0,0.0,0.0,70.0,255.0,255.0,255.0
841,42.050000000000004,-4.377161242701342,0.0,-12.00000000000003,-0.9385867109665735,0.0,0.0,0.02921995186220272,0.0,0.0,0.0,70.0,255.0,255.0,255.0
842,42.1,-4.4240539273046915,0.0,-12.00000000000003,-0.937134477010586,0.0,0.0,0.028750927506315804,0.0,0.0,0.0,70.0,255.0,255.0,255.0
843,42.150000000000006,-4.4708746904024,0.0,-12.00000000000003,-0.935711618215942,0.0,0.0,0.028205415765469866,0.0,0.0,0.0,70.0,255.0,255.0,255.0
844,42.2,-4.517625089126286,0.0,-12.00000000000003,-0.9343139354340391,0.0,0.0,0.02790147307774049,0.0,0.0,0.0,70.0,255.0,255.0,255.0
845,42.25,-4.564306083945804,0.0,-12.00000000000003,-0.9329214709081679,0.0,0.0,0.0281445732408514,0.0,0.0,0.0,70.0,255.0,255.0,255.0
846,42.300000000000004,-4.6109172362171025,0.0,-12.00000000000003,-0.9314994781099539,0.0,0.0,0.029085713063992102,0.0,0.0,0.0,70.0,255.0,255.0,255.0
847,42.35,-4.6574560317568,0.0,-12.00000000000003,-0.9300128996017687,0.0,0.0,0.030589985286511023,0.0,0.0,0.0,70.0,255.0,255.0,255.0
848,42.400000000000006,-4.703918526177279,0.0,-12.00000000000003,-0.9284404795813028,0.0,0.0,0.03237437929408671,0.0,0.0,0.0,70.0,255.0,255.0,255.0
849,42.45,-4.75030007971493,0.0,-12.00000000000003,-0.92677546167236,0.0,0.0,0.0341416408214279,0.0,0.0,0.0,70.0,255.0,255.0,255.0
850,42.5,-4.796596072344515,0.0,-12.00000000000003,-0.92502631549916,0.0,0.0,0.03559283213938613,0.0,0.0,0.0,70.0,255.0,255.0,255.0
851,42.550000000000004,-4.842802711264846,0.0,-12.00000000000003,-0.9232161784584214,0.0,0.0,0.03656493480930223,0.0,0.0,0.0,70.0,255.0,255.0,255.0
852,42.6,-4.8889176901903575,0.0,-12.00000000000003,-0.9213698220182298,0.0,0.0,0.037136404075166496,0.0,0.0,0.0,70.0,255.0,255.0,255.0
853,42.650000000000006,-4.934939693466669,0.0,-12.00000000000003,-0.9195025380509048,0.0,0.0,0.037488116008077554,0.0,0.0,0.0,70.0,255.0,255.0,255.0
854,42.7,-4.980867943995448,0.0,-12.00000000000003,-0.9176210104174221,0.0,0.0,0.03779956270388851,0.0,0.0,0.0,70.0,255.0,255.0,255.0
855,42.75,-5.026701794508411,0.0,-12.00000000000003,-0.9157225817805159,0.0,0.0,0.03826806090714285,0.0,0.0,0.0,70.0,255.0,255.0,255.0
856,42.800000000000004,-5.0724402021735,0.0,-12.00000000000003,-0.9137942043267078,0.0,0.0,0.039000095484809094,0.0,0.0,0.0,70.0,255.0,255.0,255.0
857,42.85,-5.118081214941082,0.0,-12.00000000000003,-0.911822572232035,0.0,0.0,0.03990253361081386,0.0,0.0,0.0,70.0,255.0,255.0,255.0
858,42.900000000000006,-5.163622459396703,0.0,-12.00000000000003,-0.9098039509656264,0.0,0.0,0.0407966997953757,0.0,0.0,0.0,70.0,255.0,255.0,255.0
859,42.95,-5.209061610037645,0.0,-12.00000000000003,-0.9077429022524974,0.0,0.0,0.041519222581420934,0.0,0.0,0.0,70.0,255.0,255.0,255.0
860,43.0,-5.254396749621953,0.0,-12.00000000000003,-0.9056520287074843,0.0,0.0,0.041891008149974596,0.0,0.0,0.0,70.0,255.0,255.0,255.0
861,43.050000000000004,-5.299626812908393,0.0,-12.00000000000003,-0.9035538014375,0.0,0.0,0.041834310291211096,0.0,0.0,0.0,70.0,255.0,255.0,255.0
862,43.1,-5.344752129765703,0.0,-12.00000000000003,-0.9014685976783632,0.0,0.0,0.04153523304282203,0.0,0.0,0.0,70.0,255.0,255.0,255.0
863,43.150000000000006,-5.389773672676229,0.0,-12.00000000000003,-0.8994002781332178,0.0,0.0,0.041324152409139,0.0,0.0,0.0,70.0,255.0,255.0,255.0
864,43.2,-5.434692157579025,0.0,-12.00000000000003,-0.8973361824374493,0.0,0.0,0.04152289429004696,0.0,0.0,0.0,70.0,255.0,255.0,255.0
865,43.25,-5.479507290919974,0.0,-12.00000000000003,-0.8952479887042131,0.0,0.0,0.04245583190174429,0.0,0.0,0.0,70.0,255.0,255.0,255.0
866,43.300000000000004,-5.524216956449446,0.0,-12.00000000000003,-0.8930905992472749,0.0,0.0,0.044264061951615474,0.0,0.0,0.0,70.0,255.0,255.0,255.0
867,43.35,-5.568816350844702,0.0,-12.00000000000003,-0.8908215825090515,0.0,0.0,0.04666851556933693,0.0,0.0,0.0,70.0,255.0,255.0,255.0
868,43.400000000000006,-5.613299114700351,0.0,-12.00000000000003,-0.8884237476903412,0.0,0.0,0.04915219173318164,0.0,0.0,0.0,70.0,255.0,255.0,255.0
869,43.45,-5.657658725613736,0.0,-12.00000000000003,-0.8859063633357334,0.0,0.0,0.05119087858105331,0.0,0.0,0.0,70.0,255.0,255.0,255.0
870,43.5,-5.701889751033924,0.0,-12.00000000000003,-0.8833046598322358,0.0,0.0,0.0522657108630753,0.0,0.0,0.0,70.0,255.0,255.0,255.0
871,43.550000000000004,-5.745989191596959,0.0,-12.00000000000003,-0.8806797922494258,0.0,0.0,0.052128556120401015,0.0,0.0,0.0,70.0,255.0,255.0,255.0
872,43.6,-5.789957730258867,0.0,-12.00000000000003,-0.8780918042201957,0.0,0.0,0.051085063654365825,0.0,0.0,0.0,70.0,255.0,255.0,255.0
873,43.650000000000006,-5.833798372018979,0.0,-12.00000000000003,-0.8755712858839892,0.0,0.0,0.049734400005263524,0.0,0.0,0.0,70.0,255.0,255.0,255.0
874,43.7,-5.877514858847266,0.0,-12.00000000000003,-0.8731183642196694,0.0,0.0,0.048685712598572906,0.0,0.0,0.0,70.0,255.0,255.0,255.0
875,43.75,-5.921110208440946,0.0,-12.00000000000003,-0.870702714624132,0.0,0.0,0.048537268701842606,0.0,0.0,0.0,70.0,255.0,255.0,255.0
876,43.800000000000004,-5.964585130309679,0.0,-12.00000000000003,-0.8682646373494851,0.0,0.0,0.04959486041906658,0.0,0.0,0.0,70.0,255.0,255.0,255.0
877,43.85,-6.007936672175894,0.0,-12.00000000000003,-0.8657432285822253,0.0,0.0,0.051615006037319944,0.0,0.0,0.0,70.0,255.0,255.0,255.0
878,43.900000000000006,-6.051159453167902,0.0,-12.00000000000003,-0.8631031367457531,0.0,0.0,0.05408643202162722,0.0,0.0,0.0,70.0,255.0,255.0,255.0
